Folder: data-visualizer/data/TGA/ps_scf3_flynn_ozawa_wall/1K

File: ExpDat_2025_11_11_SL_PS_Tosoh_A1000_5K_min.csv
#EXPORTTYPE:                 ,DATA ALL
#FILE:                       ,2025_11_11_SL_PS_Tosoh_A1000_5K_min.ngb-ss5
#FORMAT:                     ,NETZSCH5
#FTYPE:                      ,ASCII
#IDENTITY:                   ,PS_A1000_5K_min
#DECIMAL:                    ,POINT
#SEPARATOR:                  ,COMMA
#MTYPE:                      ,DSC
#INSTRUMENT:                 ,NETZSCH STA 449F5
#PROJECT:                    ,PS
#DATE/TIME:                  ,11/11/2025 5:18:43 PM (UTC-5)
#CORR. FILE:                 ,
#TEMPCAL:                    ,05-05-2025 14:38
#SENSITIVITY:                ,28-06-2023 13:53
#LABORATORY:                 ,Tran/AAG
#OPERATOR:                   ,Stan
#REMARK:                     ,
#SAMPLE:                     ,PS_A1000_5K_min
#SAMPLE MASS /mg:            ,5.11
#MATERIAL:                   ,
#REFERENCE:                  ,
#REFERENCE MASS /mg:         ,0
#TYPE OF CRUCIBLE:           ,Al2O3 85 ‘l, open
#SAMPLE CRUCIBLE MASS /mg:   ,0
#REFERENCE CRUCIBLE MASS /mg:,0
#DSC RANGE /‘V:              ,5000
#TG RANGE /mg:               ,35000
#TAU-R:                      ,---
#CORR. CODE:                 ,000
#EXO:                        ,-1
#RANGE:                      ,20›C....800›C/0.0....20.0K/min
#SEGMENT:                    ,S1-4/4
#SEG. 1:                     ,20›C/5.0(K/min)/100›C
#SEG. 2:                     ,100›C/00:05/100›C
#SEG. 3:                     ,100›C/5.0(K/min)/600›C
#SEG. 4:                     ,600›C/20.0(K/min)/800›C

##Temp./›C,Time/min,DSC/(mW/mg),Mass/%,Gas Flow(purge2)/(ml/min),Gas Flow(protective)/(ml/min),TIC(scan:1)/A,Sensit./(uV/mW),Segment
 32.71600,  0.00000,      0.90484,    100,50.00000,51.00000,            ,0.92403,1
 41.24100,  5.66667,      0.14652,     89.35734,50.00000,48.00000,3.718386e-09,0.92488,1
 66.20500, 11.33333,      1.00349,     91.57358,50.00000,49.00000,3.728648e-09,0.92508,1
 99.77200, 16.73417,      1.06659,     90.27828,50.00000,49.00000,3.727252e-09,0.92550,2
107.846, 20.94750, 8.838757e-02,     87.13229,50.00000,49.00000,3.728271e-09,0.92597,3
108.34, 22.08083,      0.12074,     87.13679,50.00000,49.00000,3.724275e-09,0.92608,3
110.567, 23.21417,      0.39663,     87.53973,50.00000,49.00000,3.721860e-09,0.92615,3
113.649, 24.34750,      0.55463,     87.77886,50.00000,49.00000,3.724284e-09,0.92620,3
117.71, 25.48083,      0.73430,     88.09980,50.00000,49.00000,3.723197e-09,0.92620,3
122.653, 26.61417,      0.90217,     88.39198,50.00000,49.00000,3.721867e-09,0.92616,3
128.233, 27.74750,      1.02546,     88.60470,50.00000,49.00000,3.719809e-09,0.92607,3
134.253, 28.88083,      1.11627,     88.76399,50.00000,49.00000,3.722617e-09,0.92592,3
140.519, 30.01417,      1.17356,     88.87025,50.00000,49.00000,3.719258e-09,0.92572,3
146.879, 31.14750,      1.20311,     88.94990,50.00000,49.00000,3.731702e-09,0.92546,3
153.217, 32.28083,      1.21270,     88.98982,50.00000,49.00000,3.719834e-09,0.92515,3
159.499, 33.41417,      1.20875,     89.00313,50.00000,49.00000,3.720325e-09,0.92479,3
165.642, 34.54750,      1.19739,     89.04305,50.00000,49.00000,3.723888e-09,0.92443,3
171.679, 35.68083,      1.18069,     89.08278,50.00000,49.00000,3.721767e-09,0.92398,3
177.603, 36.81417,      1.16515,     89.08278,50.00000,49.00000,3.732398e-09,0.92347,3
183.452, 37.94750,      1.15282,     89.09609,50.00000,49.00000,3.717260e-09,0.92291,3
189.245, 39.08083,      1.14356,     89.10939,50.00000,49.00000,3.720459e-09,0.92232,3
195, 40.21417,      1.14067,     89.08278,50.00000,49.00000,3.726802e-09,0.92180,3
200.699, 41.34750,      1.13734,     89.03640,50.00000,49.00000,3.724107e-09,0.92133,3
206.385, 42.48083,      1.13807,     88.96321,50.00000,49.00000,3.725104e-09,0.92097,3
212.04, 43.61417,      1.14239,     88.91018,50.00000,49.00000,3.723753e-09,0.92061,3
217.684, 44.74750,      1.15296,     88.77730,50.00000,49.00000,3.724659e-09,0.92030,3
223.332, 45.88083,      1.16412,     88.64442,50.00000,49.00000,3.726090e-09,0.92003,3
228.971, 47.01417,      1.17779,     88.45851,50.00000,49.00000,3.722035e-09,0.91980,3
234.597, 48.14750,      1.19703,     88.32564,50.00000,49.00000,3.728846e-09,0.91959,3
240.231, 49.28083,      1.21819,     88.08434,50.00000,49.00000,3.722246e-09,0.91941,3
245.872, 50.41417,      1.23847,     87.84305,50.00000,49.00000,3.725196e-09,0.91925,3
251.502, 51.54750,      1.25512,     87.57515,50.00000,49.00000,3.723784e-09,0.91914,3
257.147, 52.68083,      1.27589,     87.25401,50.00000,49.00000,3.728107e-09,0.91904,3
262.788, 53.81417,      1.29554,     86.90861,50.00000,49.00000,3.723911e-09,0.91898,3
268.453, 54.94750,      1.31264,     86.53229,50.00000,49.00000,3.727944e-09,0.91894,3
274.089, 56.08083,      1.32539,     86.04971,50.00000,49.00000,3.727487e-09,0.91892,3
279.746, 57.21417,      1.34009,     85.56477,50.00000,49.00000,3.727417e-09,0.91892,3
285.397, 58.34750,      1.35132,     85.08004,50.00000,49.00000,3.720092e-09,0.91892,3
291.039, 59.48083,      1.36238,     84.50646,50.00000,49.00000,3.721661e-09,0.91891,3
296.696, 60.61417,      1.37329,     83.91311,50.00000,49.00000,3.717920e-09,0.91891,3
302.32, 61.74750,      1.37694,     83.27123,50.00000,49.00000,3.725182e-09,0.91891,3
307.976, 62.88083,      1.37883,     82.62016,50.00000,49.00000,3.721206e-09,0.91891,3
313.629, 64.01417,      1.37481,     81.86536,50.00000,49.00000,3.727080e-09,0.91890,3
319.282, 65.14750,      1.36515,     81.08376,50.00000,49.00000,3.719969e-09,0.91888,3
324.932, 66.28083,      1.34736,     80.20705,50.00000,49.00000,3.720618e-09,0.91886,3
330.602, 67.41417,      1.32564,     79.21957,50.00000,49.00000,3.723455e-09,0.91884,3
336.246, 68.54750,      1.53202,     78.17456,50.00000,49.00000,3.719377e-09,0.91881,3
341.918, 69.68083,      1.50456,     77.02779,50.00000,49.00000,3.721842e-09,0.91879,3
347.567, 70.81417,      1.55110,     75.76145,50.00000,49.00000,3.731786e-09,0.91875,3
353.214, 71.94750,      1.55698,     74.32231,50.00000,49.00000,3.724935e-09,0.91871,3
358.874, 73.08083,      1.51172,     72.70822,50.00000,49.00000,3.725237e-09,0.91867,3
364.514, 74.21417,      1.66584,     70.92818,50.00000,49.00000,3.716721e-09,0.91862,3
370.177, 75.34750,      1.67123,     68.70313,50.00000,49.00000,3.717590e-09,0.91857,3
375.825, 76.48083,      1.74449,     65.95793,50.00000,49.00000,3.716998e-09,0.91852,3
381.489, 77.61417,      1.83861,     62.82740,50.00000,49.00000,3.716304e-09,0.91847,3
387.145, 78.74750,      1.90441,     59.05245,50.00000,49.00000,3.720628e-09,0.91840,3
392.778, 79.88083,      1.96212,     54.65342,50.00000,49.00000,3.722368e-09,0.91835,3
398.437, 81.01417,      2.00586,     49.61213,50.00000,49.00000,3.714080e-09,0.91829,3
404.093, 82.14750,      1.54511,     43.73855,50.00000,50.00000,3.717006e-09,0.91822,3
409.753, 83.28083,      2.11715,     37.41311,50.00000,50.00000,3.721512e-09,0.91815,3
415.411, 84.41417,      2.08775,     30.62955,50.00000,50.00000,3.716148e-09,0.91809,3
421.082, 85.54750,      1.97621,     23.51174,50.00000,50.00000,3.719065e-09,0.91802,3
426.749, 86.68083,      1.69076,     16.42466,50.00000,50.00000,3.716738e-09,0.91794,3
432.419, 87.81417,      1.24027,      9.92231,50.00000,50.00000,3.720728e-09,0.91787,3
438.092, 88.94750,      0.72880,      4.57554,50.00000,50.00000,3.725288e-09,0.91780,3
[...]
494.746,100.281,     -0.56755,     -4.32231,50.00000,50.00000,3.718160e-09,0.91696,3
500.404,101.414,     -0.63747,     -4.30900,50.00000,50.00000,3.713100e-09,0.91686,3
506.079,102.547,     -0.70786,     -4.31566,50.00000,50.00000,3.720785e-09,0.91676,3
511.743,103.681,     -0.77770,     -4.26928,50.00000,50.00000,3.722347e-09,0.91665,3
517.41,104.814,     -0.85300,     -4.27593,50.00000,50.00000,3.712866e-09,0.91654,3
523.091,105.948,     -0.92703,     -4.23601,50.00000,50.00000,3.718749e-09,0.91645,3
528.756,107.081,     -0.99816,     -4.22270,50.00000,50.00000,3.718362e-09,0.91633,3
534.45,108.214,     -1.07229,     -4.20274,50.00000,50.00000,3.721483e-09,0.91621,3
540.127,109.347,     -1.14603,     -4.16301,50.00000,50.00000,3.720686e-09,0.91609,3
545.806,110.481,     -1.21755,     -4.14305,50.00000,50.00000,3.714905e-09,0.91597,3
551.475,111.614,     -1.29567,     -4.16967,50.00000,50.00000,3.718259e-09,0.91584,3
557.154,112.748,     -1.36946,     -4.14305,50.00000,50.00000,3.715449e-09,0.91572,3
562.828,113.881,     -1.44275,     -4.16301,50.00000,50.00000,3.724916e-09,0.91560,3
568.512,115.014,     -1.51501,     -4.12975,50.00000,50.00000,3.713390e-09,0.91546,3
574.205,116.147,     -1.59159,     -4.12975,50.00000,50.00000,3.724427e-09,0.91533,3
579.89,117.281,     -1.66655,     -4.12309,50.00000,50.00000,3.711377e-09,0.91519,3
585.565,118.414,     -1.74091,     -4.10548,50.00000,50.00000,3.721359e-09,0.91505,3
591.248,119.547,     -1.81469,     -4.12094,50.00000,50.00000,3.713281e-09,0.91490,3
596.929,120.681,     -1.88118,     -4.11429,50.00000,50.00000,3.708928e-09,0.91477,3
600.61,121.264,     -1.53038,     -4.02564,50.00000,50.00000,3.718301e-09,0.91469,4
608.004,121.689,      0.49988,     -3.76008,50.00000,50.00000,3.715850e-09,0.91463,4
617.213,122.114,      1.39070,     -3.65147,50.00000,50.00000,3.712030e-09,0.91458,4
625.15,122.539,      0.83374,     -3.66477,50.00000,50.00000,3.710885e-09,0.91451,4
632.474,122.964,      0.45438,     -3.60059,50.00000,50.00000,3.721192e-09,0.91447,4
640.348,123.389,      0.57243,     -3.54755,50.00000,50.00000,3.711240e-09,0.91441,4
648.71,123.814,      0.69525,     -3.50763,50.00000,50.00000,3.709877e-09,0.91436,4
657.211,124.239,      0.64373,     -3.46771,50.00000,50.00000,3.708988e-09,0.91429,4
665.714,124.664,      0.53539,     -3.42798,50.00000,50.00000,3.716768e-09,0.91425,4
674.288,125.089,      0.43625,     -3.37476,50.00000,50.00000,3.709252e-09,0.91418,4
682.928,125.514,      0.33661,     -3.32172,50.00000,50.00000,3.720852e-09,0.91411,4
691.604,125.939,      0.21428,     -3.29511,50.00000,50.00000,3.712405e-09,0.91406,4
700.305,126.364, 7.149587e-02,     -3.26849,50.00000,50.00000,3.713238e-09,0.91399,4
709.027,126.789,-7.609398e-02,     -3.21546,50.00000,50.00000,3.715826e-09,0.91395,4
717.748,127.214,     -0.24164,     -3.18885,50.00000,50.00000,3.706328e-09,0.91388,4
726.455,127.639,     -0.42363,     -3.16223,50.00000,50.00000,3.719129e-09,0.91383,4
735.164,128.064,     -0.61637,     -3.10920,50.00000,50.00000,3.706606e-09,0.91376,4
743.866,128.489,     -0.82995,     -3.06928,50.00000,50.00000,3.713675e-09,0.91371,4
752.569,128.914,     -1.05163,     -3.05597,50.00000,50.00000,3.710241e-09,0.91364,4
761.25,129.339,     -1.29157,     -3.00294,50.00000,50.00000,3.711665e-09,0.91357,4
769.919,129.764,     -1.55247,     -2.97632,50.00000,50.00000,3.712159e-09,0.91352,4
778.581,130.189,     -1.82852,     -2.94971,50.00000,50.00000,3.721719e-09,0.91345,4
787.246,130.614,     -2.10482,     -2.89667,50.00000,50.00000,3.709002e-09,0.91339,4
793.764,130.934,     -2.32038,     -2.87006,50.00000,50.00000,            ,0.44739,4

File: ExpDat_2025_11_11_SL_PS_Tosoh_A1000_10K_min.csv
#EXPORTTYPE:                 ,DATA ALL
#FILE:                       ,2025_11_11_SL_PS_Tosoh_A1000_10K_min.ngb-ss5
#FORMAT:                     ,NETZSCH5
#FTYPE:                      ,ASCII
#IDENTITY:                   ,PS_A1000_10K_min
#DECIMAL:                    ,POINT
#SEPARATOR:                  ,COMMA
#MTYPE:                      ,DSC
#INSTRUMENT:                 ,NETZSCH STA 449F5
#PROJECT:                    ,PS
#DATE/TIME:                  ,11/12/2025 4:58:10 PM (UTC-5)
#CORR. FILE:                 ,
#TEMPCAL:                    ,05-05-2025 14:38
#SENSITIVITY:                ,28-06-2023 13:53
#LABORATORY:                 ,Tran/AAG
#OPERATOR:                   ,Stan
#REMARK:                     ,
#SAMPLE:                     ,PS_A1000_10K_min
#SAMPLE MASS /mg:            ,5.11
#MATERIAL:                   ,
#REFERENCE:                  ,
#REFERENCE MASS /mg:         ,0
#TYPE OF CRUCIBLE:           ,Al2O3 85 ‘l, open
#SAMPLE CRUCIBLE MASS /mg:   ,0
#REFERENCE CRUCIBLE MASS /mg:,0
#DSC RANGE /‘V:              ,5000
#TG RANGE /mg:               ,35000
#TAU-R:                      ,---
#CORR. CODE:                 ,000
#EXO:                        ,-1
#RANGE:                      ,20›C....800›C/0.0....20.0K/min
#SEGMENT:                    ,S1-4/4
#SEG. 1:                     ,20›C/5.0(K/min)/100›C
#SEG. 2:                     ,100›C/00:05/100›C
#SEG. 3:                     ,100›C/10.0(K/min)/600›C
#SEG. 4:                     ,600›C/20.0(K/min)/800›C

##Temp./›C,Time/min,DSC/(mW/mg),Mass/%,Gas Flow(purge2)/(ml/min),Gas Flow(protective)/(ml/min),TIC(scan:1)/A,Sensit./(uV/mW),Segment
 26.78800, 0.00000,      0.77375,    100,50.00000,52.00000,            ,0.92292,1
 35.30500, 4.26667,      0.23483,     90.49100,50.00000,48.00000,3.772157e-09,0.92383,1
 51.39100, 8.53333,      0.89466,     91.88571,50.00000,48.00000,3.787602e-09,0.92424,1
 76.92300,12.80000,      1.25777,     92.62955,50.00000,48.00000,3.810295e-09,0.92477,1
100.683,16.79917,      1.19883,     91.48063,50.00000,48.00000,3.808245e-09,0.92542,2
107.715,19.99917,      0.28579,     88.92133,50.00000,48.00000,3.809806e-09,0.92590,2
108.031,21.43917, 6.336981e-02,     88.16634,50.00000,48.00000,3.807411e-09,0.92606,3
109.086,22.07917,      0.32996,     88.79276,50.00000,48.00000,3.799738e-09,0.92612,3
111.695,22.71917,      0.81829,     89.60528,50.00000,48.00000,3.809989e-09,0.92615,3
115.199,23.35917,      1.19523,     90.04599,50.00000,48.00000,3.808879e-09,0.92618,3
119.216,23.99917,      1.45280,     90.38689,50.00000,48.00000,3.811481e-09,0.92620,3
123.916,24.63917,      1.72503,     90.78317,50.00000,48.00000,3.816119e-09,0.92620,3
129.424,25.27917,      2.04659,     91.20822,50.00000,48.00000,3.808819e-09,0.92619,3
135.652,25.91917,      2.35364,     91.60020,50.00000,48.00000,3.808868e-09,0.92616,3
142.351,26.55917,      2.59808,     91.84149,50.00000,48.00000,3.813334e-09,0.92611,3
149.392,27.19917,      2.78515,     92.00078,50.00000,48.00000,3.810333e-09,0.92607,3
156.639,27.83917,      2.93607,     92.13151,50.00000,48.00000,3.812853e-09,0.92599,3
164.049,28.47917,      3.05301,     92.21115,50.00000,48.00000,3.811847e-09,0.92590,3
171.526,29.11917,      3.13578,     92.29080,50.00000,49.00000,3.823051e-09,0.92579,3
178.995,29.75917,      3.18310,     92.31742,50.00000,48.00000,3.815817e-09,0.92566,3
186.451,30.39917,      3.20560,     92.31742,50.00000,49.00000,3.823141e-09,0.92552,3
193.862,31.03917,      3.20513,     92.29080,50.00000,49.00000,3.812890e-09,0.92536,3
201.162,31.67917,      3.18555,     92.26438,50.00000,49.00000,3.814194e-09,0.92518,3
208.332,32.31917,      3.15260,     92.18454,50.00000,49.00000,3.817248e-09,0.92504,3
215.369,32.95917,      3.11481,     92.07397,50.00000,49.00000,3.814553e-09,0.92483,3
222.318,33.59917,      3.07494,     91.94110,50.00000,49.00000,3.809989e-09,0.92461,3
229.157,34.23917,      3.03932,     91.75519,50.00000,49.00000,3.813178e-09,0.92438,3
235.888,34.87917,      3.00904,     91.53816,50.00000,49.00000,3.812674e-09,0.92412,3
242.537,35.51917,      2.98300,     91.26810,50.00000,49.00000,3.817341e-09,0.92386,3
249.134,36.15917,      2.96652,     90.99139,50.00000,49.00000,3.822510e-09,0.92358,3
255.664,36.79917,      2.97504,     90.61272,50.00000,49.00000,3.822568e-09,0.92328,3
262.157,37.43917,      2.96516,     90.21644,50.00000,49.00000,3.817773e-09,0.92305,3
268.602,38.07917,      2.96353,     89.67613,50.00000,49.00000,3.807957e-09,0.92273,3
275.028,38.71917,      2.96594,     89.04521,50.00000,49.00000,3.820809e-09,0.92240,3
281.413,39.35917,      2.98427,     88.29256,50.00000,49.00000,3.820212e-09,0.92206,3
287.788,39.99917,      3.01857,     87.42016,50.00000,49.00000,3.811155e-09,0.92175,3
294.142,40.63917,      3.06970,     86.41272,50.00000,49.00000,3.813589e-09,0.92148,3
300.501,41.27917,      3.12711,     85.28376,50.00000,49.00000,3.808509e-09,0.92122,3
306.843,41.91917,      3.18893,     84.01957,50.00000,49.00000,3.815217e-09,0.92097,3
313.182,42.55917,      3.24566,     82.61585,50.00000,49.00000,3.812954e-09,0.92075,3
319.52,43.19917,      3.29911,     81.09256,50.00000,49.00000,3.808833e-09,0.92059,3
325.851,43.83917,      3.34467,     79.48748,50.00000,49.00000,3.809220e-09,0.92040,3
332.204,44.47917,      3.39842,     77.76732,50.00000,49.00000,3.808820e-09,0.92022,3
338.529,45.11917,      3.42929,     75.96947,50.00000,49.00000,3.811346e-09,0.92007,3
344.876,45.75917,      3.45499,     74.01233,50.00000,49.00000,3.818789e-09,0.91993,3
351.223,46.39917,      3.49849,     71.80724,50.00000,49.00000,3.803816e-09,0.91980,3
357.558,47.03917,      3.52755,     69.45382,50.00000,49.00000,3.812783e-09,0.91968,3
363.9,47.67917,      3.54620,     66.90333,50.00000,49.00000,3.816030e-09,0.91956,3
370.25,48.31917,      3.54441,     64.06497,50.00000,49.00000,3.807995e-09,0.91948,3
376.609,48.95917,      3.56280,     61.00744,50.00000,49.00000,3.812294e-09,0.91937,3
382.97,49.59917,      3.58562,     57.52270,50.00000,49.00000,3.811293e-09,0.91928,3
389.306,50.23917,      3.63237,     53.73014,50.00000,49.00000,3.813333e-09,0.91919,3
395.651,50.87917,      3.68838,     49.59883,50.00000,49.00000,3.808316e-09,0.91912,3
402.002,51.51917,      3.60273,     44.94286,50.00000,49.00000,3.805691e-09,0.91906,3
408.36,52.15917,      3.76572,     39.97025,50.00000,49.00000,3.812163e-09,0.91900,3
414.726,52.79917,      3.77036,     34.66125,50.00000,49.00000,3.806658e-09,0.91896,3
421.084,53.43917,      3.73975,     28.97789,50.00000,49.00000,3.813163e-09,0.91893,3
427.449,54.07917,      3.60927,     23.08004,50.00000,49.00000,3.807144e-09,0.91890,3
433.82,54.71917,      3.35672,     17.18865,50.00000,49.00000,3.810170e-09,0.91888,3
440.205,55.35917,      2.92664,     11.61820,50.00000,49.00000,3.809310e-09,0.91887,3
446.578,55.99917,      2.46360,      6.78728,50.00000,49.00000,3.805717e-09,0.91887,3
452.958,56.63917,      2.05649,      3.06791,50.00000,49.00000,3.806083e-09,0.91887,3
459.351,57.27917,      1.80048,      0.54168,50.00000,49.00000,3.805002e-09,0.91887,3
465.747,57.91917,      1.56109,     -0.93053,50.00000,49.00000,3.812985e-09,0.91887,3
472.129,58.55917,      1.36443,     -1.61683,50.00000,49.00000,3.802604e-09,0.91887,3
478.52,59.19917,      1.22583,     -1.87143,50.00000,49.00000,3.814104e-09,0.91887,3
[...]
535.962,64.95917,      0.36316,     -2.22564,50.00000,49.00000,3.806403e-09,0.91884,3
542.363,65.59917,      0.25776,     -2.21018,50.00000,49.00000,3.800142e-09,0.91884,3
548.767,66.23917,      0.15434,     -2.18356,50.00000,49.00000,3.801908e-09,0.91883,3
555.177,66.87917, 4.454877e-02,     -2.19022,50.00000,49.00000,3.806891e-09,0.91881,3
561.578,67.51917,-6.533859e-02,     -2.16380,50.00000,49.00000,3.793515e-09,0.91880,3
567.989,68.15917,     -0.17180,     -2.13718,50.00000,49.00000,3.804243e-09,0.91878,3
574.429,68.79917,     -0.28362,     -2.13053,50.00000,49.00000,3.799073e-09,0.91877,3
580.847,69.43917,     -0.39733,     -2.12387,50.00000,49.00000,3.798901e-09,0.91875,3
587.256,70.07917,     -0.50308,     -2.11057,50.00000,49.00000,3.799441e-09,0.91873,3
593.689,70.71917,     -0.61499,     -2.08395,50.00000,49.00000,3.802664e-09,0.91870,3
598.402,71.17917,     -0.63759,     -2.09061,50.00000,49.00000,3.795742e-09,0.91869,4
603.179,71.49917,      0.35611,     -1.95793,50.00000,49.00000,3.794848e-09,0.91867,4
609.686,71.81917,      1.66078,     -1.84716,50.00000,49.00000,3.798629e-09,0.91866,4
616.462,72.13917,      2.03355,     -1.77417,50.00000,49.00000,3.798872e-09,0.91865,4
622.673,72.45917,      1.64239,     -1.78063,50.00000,49.00000,3.799706e-09,0.91863,4
628.502,72.77917,      1.21508,     -1.78063,50.00000,49.00000,3.802283e-09,0.91862,4
634.403,73.09917,      1.07661,     -1.75421,50.00000,49.00000,3.805324e-09,0.91860,4
640.544,73.41917,      1.10396,     -1.73425,50.00000,49.00000,3.805177e-09,0.91859,4
646.869,73.73917,      1.11396,     -1.72759,50.00000,49.00000,3.798899e-09,0.91857,4
653.244,74.05917,      1.03807,     -1.67436,50.00000,49.00000,3.800006e-09,0.91855,4
659.648,74.37917,      0.90357,     -1.68767,50.00000,49.00000,3.801937e-09,0.91853,4
666.054,74.69917,      0.76192,     -1.63464,50.00000,49.00000,3.802780e-09,0.91852,4
672.48,75.01917,      0.62439,     -1.62133,50.00000,49.00000,3.800620e-09,0.91850,4
678.959,75.33917,      0.48121,     -1.59472,50.00000,49.00000,3.799767e-09,0.91848,4
685.457,75.65917,      0.32834,     -1.56810,50.00000,49.00000,3.792327e-09,0.91846,4
691.959,75.97917,      0.16168,     -1.55479,50.00000,49.00000,3.801981e-09,0.91844,4
698.48,76.29917,-1.255955e-02,     -1.53503,50.00000,49.00000,3.795905e-09,0.91842,4
704.997,76.61917,     -0.19754,     -1.48845,50.00000,49.00000,3.797265e-09,0.91839,4
711.526,76.93917,     -0.39126,     -1.46184,50.00000,49.00000,3.790922e-09,0.91838,4
718.054,77.25917,     -0.59102,     -1.44853,50.00000,49.00000,3.796418e-09,0.91836,4
724.573,77.57917,     -0.79468,     -1.43542,50.00000,49.00000,3.798478e-09,0.91834,4
731.094,77.89917,     -1.01017,     -1.40881,50.00000,49.00000,3.788702e-09,0.91832,4
737.609,78.21917,     -1.22623,     -1.38219,50.00000,49.00000,3.795601e-09,0.91829,4
744.126,78.53917,     -1.45849,     -1.36888,50.00000,49.00000,3.798025e-09,0.91827,4
750.642,78.85917,     -1.68826,     -1.35558,50.00000,49.00000,3.796531e-09,0.91825,4
757.161,79.17917,     -1.92161,     -1.32916,50.00000,49.00000,3.793054e-09,0.91822,4
763.667,79.49917,     -2.15790,     -1.28258,50.00000,49.00000,3.797369e-09,0.91819,4
770.161,79.81917,     -2.39488,     -1.26928,50.00000,49.00000,3.796689e-09,0.91817,4
776.653,80.13917,     -2.63389,     -1.24266,50.00000,49.00000,3.797850e-09,0.91815,4
783.144,80.45917,     -2.87627,     -1.21624,50.00000,49.00000,3.800410e-09,0.91812,4
789.639,80.77917,     -3.11511,     -1.19628,50.00000,49.00000,3.795741e-09,0.91809,4
794.097,80.99917,     -3.28482,     -1.18963,50.00000,49.00000,            ,0.44725,4