Folder: data-visualizer/data/TGA/ps_scf3_flynn_ozawa_wall/1K (part 2)

File: ExpDat_2025_11_11_SL_PS_Tosoh_A1000_15K_min.csv
#EXPORTTYPE:                 ,DATA ALL
#FILE:                       ,2025_11_11_SL_PS_Tosoh_A1000_15K_min.ngb-ss5
#FORMAT:                     ,NETZSCH5
#FTYPE:                      ,ASCII
#IDENTITY:                   ,PS_A1000_15K_min
#DECIMAL:                    ,POINT
#SEPARATOR:                  ,COMMA
#MTYPE:                      ,DSC
#INSTRUMENT:                 ,NETZSCH STA 449F5
#PROJECT:                    ,PS
#DATE/TIME:                  ,11/12/2025 2:00:09 PM (UTC-5)
#CORR. FILE:                 ,
#TEMPCAL:                    ,05-05-2025 14:38
#SENSITIVITY:                ,28-06-2023 13:53
#LABORATORY:                 ,Tran/AAG
#OPERATOR:                   ,Stan
#REMARK:                     ,
#SAMPLE:                     ,PS_A1000_15K_min
#SAMPLE MASS /mg:            ,4.55
#MATERIAL:                   ,
#REFERENCE:                  ,
#REFERENCE MASS /mg:         ,0
#TYPE OF CRUCIBLE:           ,Al2O3 85 ‘l, open
#SAMPLE CRUCIBLE MASS /mg:   ,0
#REFERENCE CRUCIBLE MASS /mg:,0
#DSC RANGE /‘V:              ,5000
#TG RANGE /mg:               ,35000
#TAU-R:                      ,---
#CORR. CODE:                 ,000
#EXO:                        ,-1
#RANGE:                      ,20›C....800›C/0.0....20.0K/min
#SEGMENT:                    ,S1-4/4
#SEG. 1:                     ,20›C/5.0(K/min)/100›C
#SEG. 2:                     ,100›C/00:05/100›C
#SEG. 3:                     ,100›C/15.0(K/min)/600›C
#SEG. 4:                     ,600›C/20.0(K/min)/800›C

##Temp./›C,Time/min,DSC/(mW/mg),Mass/%,Gas Flow(purge2)/(ml/min),Gas Flow(protective)/(ml/min),TIC(scan:1)/A,Sensit./(uV/mW),Segment
 23.61300, 0.00000,      0.79927,    100,50.00000,54.00000,            ,0.92224,1
 34.54800, 4.26667,      0.39039,     87.90835,50.00000,48.00000,3.797914e-09,0.92358,1
 51.06400, 8.53333,      1.28872,     89.53209,50.00000,48.00000,3.818506e-09,0.92406,1
 76.86200,12.80000,      1.76417,     90.19846,50.00000,48.00000,3.826772e-09,0.92462,1
100.712,16.79917,      1.65758,     88.63187,50.00000,48.00000,3.834210e-09,0.92532,2
107.775,19.99917,      0.39760,     85.91670,50.00000,48.00000,3.835579e-09,0.92585,2
108.082,21.29250, 9.306888e-02,     85.12857,50.00000,48.00000,3.837699e-09,0.92600,3
108.601,21.71917,      0.25261,     85.67319,50.00000,48.00000,3.840284e-09,0.92605,3
110.245,22.14583,      0.79109,     86.71495,50.00000,48.00000,3.837638e-09,0.92608,3
113.057,22.57250,      1.52264,     87.76659,50.00000,48.00000,3.844363e-09,0.92612,3
116.642,22.99917,      2.18954,     88.42308,50.00000,48.00000,3.833978e-09,0.92615,3
120.654,23.42583,      2.69222,     88.94527,50.00000,48.00000,3.837878e-09,0.92617,3
125.019,23.85250,      3.08391,     89.33560,50.00000,48.00000,3.842663e-09,0.92619,3
129.837,24.27917,      3.47273,     89.85275,50.00000,48.00000,3.839141e-09,0.92620,3
135.246,24.70583,      3.91864,     90.29297,50.00000,48.00000,3.842200e-09,0.92620,3
141.251,25.13250,      4.39991,     90.77780,50.00000,48.00000,3.841426e-09,0.92620,3
147.744,25.55917,      4.86402,     91.16308,50.00000,48.00000,3.840873e-09,0.92619,3
154.585,25.98583,      5.26446,     91.41187,50.00000,48.00000,3.842258e-09,0.92617,3
161.673,26.41250,      5.59106,     91.62308,50.00000,48.00000,3.843332e-09,0.92615,3
168.942,26.83917,      5.86474,     91.80220,50.00000,48.00000,3.842437e-09,0.92612,3
176.381,27.26583,      6.09922,     91.89165,50.00000,48.00000,3.836735e-09,0.92607,3
183.949,27.69250,      6.29935,     92.01099,50.00000,48.00000,3.840892e-09,0.92604,3
191.613,28.11917,      6.45811,     92.04088,50.00000,48.00000,3.843180e-09,0.92598,3
199.319,28.54583,      6.56675,     92.10066,50.00000,48.00000,3.848208e-09,0.92593,3
206.984,28.97250,      6.63009,     92.06088,50.00000,48.00000,3.845788e-09,0.92585,3
214.584,29.39917,      6.68037,     91.97121,50.00000,48.00000,3.845969e-09,0.92577,3
222.121,29.82583,      6.67075,     91.84703,50.00000,48.00000,3.842194e-09,0.92570,3
229.581,30.25250,      6.65451,     91.72769,50.00000,48.00000,3.838678e-09,0.92560,3
236.942,30.67917,      6.60279,     91.54857,50.00000,48.00000,3.844980e-09,0.92552,3
244.232,31.10583,      6.59784,     91.29736,50.00000,48.00000,3.844064e-09,0.92541,3
251.401,31.53250,      6.49833,     90.97670,50.00000,48.00000,3.847094e-09,0.92532,3
258.5,31.95917,      6.41728,     90.53165,50.00000,48.00000,3.840563e-09,0.92519,3
265.492,32.38583,      6.35760,     90.04418,50.00000,48.00000,3.844475e-09,0.92504,3
272.409,32.81250,      6.29409,     89.44505,50.00000,48.00000,3.841682e-09,0.92494,3
279.23,33.23917,      6.23226,     88.73143,50.00000,48.00000,3.840787e-09,0.92478,3
285.972,33.66583,      6.18057,     87.92835,50.00000,48.00000,3.843697e-09,0.92467,3
292.661,34.09250,      6.15013,     86.90879,50.00000,48.00000,3.843821e-09,0.92450,3
299.275,34.51917,      6.15334,     85.73033,50.00000,48.00000,3.851330e-09,0.92438,3
305.846,34.94583,      6.16372,     84.37011,50.00000,48.00000,3.837813e-09,0.92419,3
312.372,35.37250,      6.19346,     82.78132,50.00000,48.00000,3.848070e-09,0.92400,3
318.864,35.79917,      6.24415,     80.92901,50.00000,48.00000,3.849414e-09,0.92386,3
325.312,36.22583,      6.29045,     78.83275,50.00000,48.00000,3.847289e-09,0.92365,3
331.741,36.65250,      6.35566,     76.57011,50.00000,48.00000,3.849865e-09,0.92351,3
338.145,37.07917,      6.41982,     74.05626,50.00000,48.00000,3.841846e-09,0.92328,3
344.531,37.50583,      6.49102,     71.37099,50.00000,48.00000,3.849483e-09,0.92313,3
350.895,37.93250,      6.53305,     68.54879,50.00000,48.00000,3.845001e-09,0.92289,3
357.245,38.35917,      6.58613,     65.55275,50.00000,48.00000,3.848567e-09,0.92265,3
363.606,38.78583,      6.60736,     62.44198,50.00000,48.00000,3.848866e-09,0.92248,3
369.941,39.21250,      6.62139,     59.17736,50.00000,48.00000,3.843485e-09,0.92223,3
376.272,39.63917,      6.64905,     55.73868,50.00000,48.00000,3.847425e-09,0.92205,3
382.602,40.06583,      6.68761,     52.05363,50.00000,48.00000,3.851473e-09,0.92181,3
388.926,40.49250,      6.70910,     48.32637,50.00000,48.00000,3.845332e-09,0.92161,3
395.248,40.91917,      6.75108,     44.38286,50.00000,48.00000,3.847861e-09,0.92147,3
401.567,41.34583,      6.76115,     40.32264,50.00000,48.00000,3.847349e-09,0.92128,3
407.896,41.77250,      6.79533,     36.09055,50.00000,48.00000,3.846454e-09,0.92115,3
414.2,42.19917,      6.78947,     31.63978,50.00000,48.00000,3.850189e-09,0.92097,3
420.533,42.62583,      6.77410,     26.97275,50.00000,48.00000,3.858425e-09,0.92085,3
426.856,43.05250,      6.68107,     22.03473,50.00000,48.00000,3.845893e-09,0.92068,3
433.19,43.47917,      6.53666,     17.02681,50.00000,48.00000,3.844177e-09,0.92053,3
439.529,43.90583,      6.26902,     12.10132,50.00000,48.00000,3.844259e-09,0.92043,3
445.857,44.33250,      5.89675,      7.59824,50.00000,48.00000,3.843093e-09,0.92030,3
452.208,44.75917,      5.46477,      3.73934,50.00000,48.00000,3.845372e-09,0.92022,3
458.55,45.18583,      5.04131,      0.85253,50.00000,48.00000,3.849354e-09,0.92009,3
464.908,45.61250,      4.74729,     -1.08703,50.00000,48.00000,3.839829e-09,0.92002,3
471.241,46.03917,      4.59358,     -2.20330,50.00000,48.00000,3.848511e-09,0.91992,3
477.585,46.46583,      4.44892,     -2.74286,50.00000,48.00000,3.847190e-09,0.91981,3
[...]
534.728,50.30583,      3.50457,     -3.17560,50.00000,48.00000,3.847482e-09,0.91920,3
541.088,50.73250,      3.38927,     -3.14571,50.00000,48.00000,3.845679e-09,0.91914,3
547.463,51.15917,      3.27236,     -3.14571,50.00000,48.00000,3.848975e-09,0.91910,3
553.848,51.58583,      3.15234,     -3.13824,50.00000,48.00000,3.840526e-09,0.91905,3
560.249,52.01250,      3.02950,     -3.09363,50.00000,48.00000,3.847285e-09,0.91902,3
566.639,52.43917,      2.89534,     -3.10088,50.00000,48.00000,3.840588e-09,0.91898,3
573.022,52.86583,      2.75178,     -3.08615,50.00000,48.00000,3.842479e-09,0.91896,3
579.425,53.29250,      2.61613,     -3.08615,50.00000,48.00000,3.843522e-09,0.91893,3
585.838,53.71917,      2.47601,     -3.05626,50.00000,48.00000,3.847496e-09,0.91890,3
592.25,54.14583,      2.32423,     -3.02637,50.00000,48.00000,3.853469e-09,0.91889,3
597.811,54.51250,      2.22419,     -3.02637,50.00000,48.00000,3.843034e-09,0.91888,4
603.393,54.83250,      2.77236,     -2.93692,50.00000,48.00000,3.851568e-09,0.91887,4
609.845,55.15250,      3.63464,     -2.90703,50.00000,48.00000,3.854623e-09,0.91886,4
616.449,55.47250,      3.92242,     -2.81758,50.00000,48.00000,3.848380e-09,0.91885,4
622.763,55.79250,      3.63928,     -2.81758,50.00000,48.00000,3.847415e-09,0.91885,4
628.9,56.11250,      3.24587,     -2.81758,50.00000,48.00000,3.840332e-09,0.91885,4
635.08,56.43250,      3.02571,     -2.78769,50.00000,48.00000,3.846162e-09,0.91885,4
641.365,56.75250,      2.93648,     -2.76527,50.00000,48.00000,3.855982e-09,0.91885,4
647.738,57.07250,      2.83324,     -2.76527,50.00000,48.00000,3.850098e-09,0.91885,4
654.131,57.39250,      2.67630,     -2.76527,50.00000,48.00000,3.843826e-09,0.91885,4
660.538,57.71250,      2.48458,     -2.73538,50.00000,48.00000,3.848090e-09,0.91885,4
666.969,58.03250,      2.27719,     -2.71802,50.00000,48.00000,3.846162e-09,0.91885,4
673.419,58.35250,      2.06431,     -2.70308,50.00000,48.00000,3.843682e-09,0.91885,4
679.864,58.67250,      1.84990,     -2.69560,50.00000,48.00000,3.847191e-09,0.91885,4
686.319,58.99250,      1.63540,     -2.67341,50.00000,48.00000,3.847799e-09,0.91885,4
692.801,59.31250,      1.40959,     -2.67341,50.00000,48.00000,3.848618e-09,0.91885,4
699.275,59.63250,      1.17230,     -2.67341,50.00000,48.00000,3.843015e-09,0.91885,4
705.761,59.95250,      0.93308,     -2.60857,50.00000,48.00000,3.848588e-09,0.91885,4
712.241,60.27250,      0.68883,     -2.62352,50.00000,48.00000,3.847489e-09,0.91885,4
718.729,60.59250,      0.44301,     -2.62352,50.00000,48.00000,3.839775e-09,0.91885,4
725.206,60.91250,      0.19214,     -2.59385,50.00000,48.00000,3.847445e-09,0.91885,4
731.69,61.23250,-6.560305e-02,     -2.59385,50.00000,48.00000,3.840603e-09,0.91886,4
738.175,61.55250,     -0.32030,     -2.56396,50.00000,48.00000,3.838479e-09,0.91885,4
744.661,61.87250,     -0.58405,     -2.53407,50.00000,48.00000,3.842980e-09,0.91885,4
751.139,62.19250,     -0.85733,     -2.55648,50.00000,48.00000,3.838962e-09,0.91885,4
757.613,62.51250,     -1.13592,     -2.49670,50.00000,48.00000,3.844633e-09,0.91885,4
764.092,62.83250,     -1.40931,     -2.49670,50.00000,48.00000,3.846300e-09,0.91885,4
770.562,63.15250,     -1.68616,     -2.46703,50.00000,48.00000,3.845812e-09,0.91885,4
777.036,63.47250,     -1.97616,     -2.46440,50.00000,48.00000,3.842083e-09,0.91885,4
783.493,63.79250,     -2.26163,     -2.43451,50.00000,48.00000,3.847653e-09,0.91885,4
789.965,64.11250,     -2.54967,     -2.40484,50.00000,48.00000,            ,0.44891,4
794.313,64.32750,     -2.74486,     -2.37495,50.00000,48.00000,            ,0.44717,4

File: ExpDat_2025_11_11_SL_PS_Tosoh_A1000_20K_min.csv
#EXPORTTYPE:                 ,DATA ALL
#FILE:                       ,2025_11_11_SL_PS_Tosoh_A1000_20K_min.ngb-ss5
#FORMAT:                     ,NETZSCH5
#FTYPE:                      ,ASCII
#IDENTITY:                   ,PS_A1000_20K_min
#DECIMAL:                    ,POINT
#SEPARATOR:                  ,COMMA
#MTYPE:                      ,DSC
#INSTRUMENT:                 ,NETZSCH STA 449F5
#PROJECT:                    ,PS
#DATE/TIME:                  ,11/12/2025 10:51:39 AM (UTC-5)
#CORR. FILE:                 ,
#TEMPCAL:                    ,05-05-2025 14:38
#SENSITIVITY:                ,28-06-2023 13:53
#LABORATORY:                 ,Tran/AAG
#OPERATOR:                   ,Stan
#REMARK:                     ,
#SAMPLE:                     ,PS_A1000_20K_min
#SAMPLE MASS /mg:            ,4.92
#MATERIAL:                   ,
#REFERENCE:                  ,
#REFERENCE MASS /mg:         ,0
#TYPE OF CRUCIBLE:           ,Al2O3 85 ‘l, open
#SAMPLE CRUCIBLE MASS /mg:   ,0
#REFERENCE CRUCIBLE MASS /mg:,0
#DSC RANGE /‘V:              ,5000
#TG RANGE /mg:               ,35000
#TAU-R:                      ,---
#CORR. CODE:                 ,000
#EXO:                        ,-1
#RANGE:                      ,20›C....800›C/0.0....20.0K/min
#SEGMENT:                    ,S1-4/4
#SEG. 1:                     ,20›C/5.0(K/min)/100›C
#SEG. 2:                     ,100›C/00:05/100›C
#SEG. 3:                     ,100›C/20.0(K/min)/600›C
#SEG. 4:                     ,600›C/20.0(K/min)/800›C

##Temp./›C,Time/min,DSC/(mW/mg),Mass/%,Gas Flow(purge2)/(ml/min),Gas Flow(protective)/(ml/min),TIC(scan:1)/A,Sensit./(uV/mW),Segment
 33.69100, 0.00000,      1.31748,100,50.00000,50.00000,            ,0.92419,1
 40.08200, 4.06667, 9.403816e-02, 88.97866,50.00000,48.00000,3.807850e-09,0.92482,1
 48.44300, 8.13333,      0.90844, 90.14898,50.00000,48.00000,3.821885e-09,0.92505,1
 70.94000,12.20000,      1.72567, 91.70122,50.00000,48.00000,3.817795e-09,0.92513,1
 96.38400,16.20000,      1.86931, 90.94919,50.00000,48.00000,3.819783e-09,0.92542,2
106.598,19.25000,      0.65906, 88.42439,50.00000,48.00000,3.821341e-09,0.92575,2
107.948,21.13000,      0.15036, 87.21260,50.00000,48.00000,3.823807e-09,0.92597,3
108.101,21.43500,      0.14733, 87.34593,50.00000,48.00000,3.819427e-09,0.92600,3
108.838,21.74000,      0.37509, 88.07724,50.00000,48.00000,3.833203e-09,0.92603,3
110.442,22.04500,      0.87723, 89.09126,50.00000,48.00000,3.821647e-09,0.92604,3
112.955,22.35000,      1.57814, 90.09146,50.00000,48.00000,3.824644e-09,0.92607,3
116.197,22.65500,      2.32646, 90.97907,50.00000,48.00000,3.829789e-09,0.92610,3
119.923,22.96000,      2.99695, 91.59533,50.00000,48.00000,3.822159e-09,0.92612,3
123.936,23.26500,      3.53460, 91.99085,50.00000,48.00000,3.832157e-09,0.92614,3
128.159,23.57000,      3.95605, 92.32886,50.00000,48.00000,3.829975e-09,0.92616,3
132.651,23.87500,      4.31967, 92.71057,50.00000,48.00000,3.819667e-09,0.92617,3
137.472,24.18000,      4.69289, 93.04858,50.00000,48.00000,3.833534e-09,0.92618,3
142.709,24.48500,      5.10586, 93.45793,50.00000,48.00000,3.829557e-09,0.92619,3
148.383,24.79000,      5.56714, 93.81890,50.00000,48.00000,3.833143e-09,0.92620,3
154.477,25.09500,      6.05148, 94.13638,50.00000,48.00000,3.828731e-09,0.92620,3
160.892,25.40000,      6.51924, 94.42825,50.00000,48.00000,3.823070e-09,0.92620,3
167.565,25.70500,      6.94232, 94.59390,50.00000,48.00000,3.828799e-09,0.92620,3
174.432,26.01000,      7.30839, 94.73882,50.00000,48.00000,3.825196e-09,0.92619,3
181.449,26.31500,      7.61354, 94.86524,50.00000,48.00000,3.830186e-09,0.92619,3
188.591,26.62000,      7.87167, 94.93415,50.00000,48.00000,3.824415e-09,0.92617,3
195.85,26.92500,      8.08704, 94.96179,50.00000,48.00000,3.827973e-09,0.92615,3
203.172,27.23000,      8.26998, 94.97561,50.00000,48.00000,3.831281e-09,0.92613,3
210.562,27.53500,      8.41843, 94.96179,50.00000,48.00000,3.831988e-09,0.92611,3
217.966,27.84000,      8.53068, 94.93415,50.00000,48.00000,3.822446e-09,0.92609,3
225.379,28.14500,      8.60413, 94.87907,50.00000,48.00000,3.834993e-09,0.92606,3
232.772,28.45000,      8.64007, 94.79634,50.00000,48.00000,3.837507e-09,0.92602,3
240.119,28.75500,      8.63814, 94.65589,50.00000,48.00000,3.830710e-09,0.92598,3
247.393,29.06000,      8.60030, 94.44898,50.00000,48.00000,3.832880e-09,0.92594,3
254.606,29.36500,      8.53583, 94.16382,50.00000,48.00000,3.838476e-09,0.92589,3
261.757,29.67000,      8.45322, 93.81890,50.00000,48.00000,3.829110e-09,0.92583,3
268.837,29.97500,      8.35603, 93.43028,50.00000,48.00000,3.829657e-09,0.92580,3
275.855,30.28000,      8.24905, 92.91992,50.00000,48.00000,3.825897e-09,0.92574,3
282.776,30.58500,      8.13313, 92.38171,50.00000,48.00000,3.832921e-09,0.92567,3
289.622,30.89000,      8.03289, 91.66667,50.00000,48.00000,3.829408e-09,0.92561,3
296.388,31.19500,      7.93326, 90.88720,50.00000,48.00000,3.828897e-09,0.92553,3
303.081,31.50000,      7.83620, 89.88923,50.00000,48.00000,3.833836e-09,0.92545,3
309.699,31.80500,      7.77915, 88.70264,50.00000,48.00000,3.824803e-09,0.92541,3
316.262,32.11000,      7.72301, 87.35976,50.00000,48.00000,3.832361e-09,0.92532,3
322.761,32.41500,      7.68466, 85.89268,50.00000,48.00000,3.827490e-09,0.92523,3
329.204,32.72000,      7.67843, 84.20264,50.00000,48.00000,3.823457e-09,0.92513,3
335.584,33.02500,      7.67267, 82.29858,50.00000,48.00000,3.832608e-09,0.92504,3
341.913,33.33000,      7.70457, 80.29817,50.00000,48.00000,3.831197e-09,0.92493,3
348.207,33.63500,      7.72978, 78.13191,50.00000,48.00000,3.833298e-09,0.92488,3
354.457,33.94000,      7.75072, 75.74980,50.00000,48.00000,3.823191e-09,0.92476,3
360.674,34.24500,      7.80157, 73.23415,50.00000,48.00000,3.832567e-09,0.92465,3
366.863,34.55000,      7.85756, 70.50244,50.00000,48.00000,3.833263e-09,0.92453,3
373.035,34.85500,      7.90462, 67.60264,50.00000,48.00000,3.831612e-09,0.92440,3
379.173,35.16000,      7.92989, 64.53069,50.00000,48.00000,3.829402e-09,0.92427,3
385.304,35.46500,      7.96644, 61.27927,50.00000,48.00000,3.824737e-09,0.92414,3
391.4,35.77000,      7.99649, 57.88984,50.00000,48.00000,3.839147e-09,0.92407,3
397.487,36.07500,      8.03284, 54.22907,50.00000,48.00000,3.825511e-09,0.92394,3
403.555,36.38000,      8.08156, 50.23476,50.00000,48.00000,3.836682e-09,0.92379,3
409.609,36.68500,      8.14252, 45.98313,50.00000,48.00000,3.827874e-09,0.92365,3
415.665,36.99000,      8.19534, 41.25305,50.00000,48.00000,3.834102e-09,0.92349,3
421.729,37.29500,      8.23270, 36.23557,50.00000,48.00000,3.824475e-09,0.92334,3
427.757,37.60000,      8.25436, 30.89390,50.00000,48.00000,3.829284e-09,0.92326,3
433.8,37.90500,      8.22581, 25.52236,50.00000,48.00000,3.829482e-09,0.92310,3
439.826,38.21000,      8.14354, 20.17846,50.00000,48.00000,3.830940e-09,0.92294,3
445.858,38.51500,      7.97147, 15.24614,50.00000,48.00000,3.825585e-09,0.92276,3
451.887,38.82000,      7.72652, 10.81280,50.00000,48.00000,3.830867e-09,0.92260,3
457.909,39.12500,      7.42942,  7.34045,50.00000,48.00000,3.821257e-09,0.92242,3
463.928,39.43000,      7.10851,  4.58110,50.00000,48.00000,3.828050e-09,0.92233,3
469.944,39.73500,      6.82870,  2.62195,50.00000,48.00000,3.834291e-09,0.92216,3
475.959,40.04000,      6.59206,  1.38720,50.00000,48.00000,3.832829e-09,0.92202,3
[...]
536.165,43.09000,      5.70493,  0.28577,50.00000,48.00000,3.821635e-09,0.92081,3
542.205,43.39500,      5.63845,  0.29268,50.00000,48.00000,3.830085e-09,0.92076,3
548.258,43.70000,      5.57473,  0.32033,50.00000,48.00000,3.827186e-09,0.92066,3
554.304,44.00500,      5.50825,  0.35020,50.00000,48.00000,3.834601e-09,0.92056,3
560.374,44.31000,      5.43917,  0.37764,50.00000,48.00000,3.830548e-09,0.92047,3
566.433,44.61500,      5.36085,  0.40752,50.00000,48.00000,3.827983e-09,0.92038,3
572.509,44.92000,      5.27889,  0.40305,50.00000,48.00000,3.823154e-09,0.92030,3
578.582,45.22500,      5.19145,  0.46504,50.00000,48.00000,3.832564e-09,0.92026,3
584.662,45.53000,      5.10727,  0.48577,50.00000,48.00000,3.826798e-09,0.92018,3
590.734,45.83500,      5.01498,  0.54106,50.00000,48.00000,3.826681e-09,0.92011,3
596.817,46.14000,      4.91973,  0.53862,50.00000,48.00000,3.825607e-09,0.92003,4
602.889,46.44500,      4.80229,  0.56626,50.00000,48.00000,3.829390e-09,0.91996,4
608.959,46.75000,      4.69697,  0.56626,50.00000,48.00000,3.822093e-09,0.91989,4
615.055,47.05500,      4.60066,  0.62154,50.00000,48.00000,3.828981e-09,0.91986,4
621.154,47.36000,      4.49018,  0.60081,50.00000,48.00000,3.827167e-09,0.91980,4
627.257,47.66500,      4.37125,  0.62846,50.00000,48.00000,3.826904e-09,0.91973,4
633.362,47.97000,      4.23627,  0.66280,50.00000,48.00000,3.827892e-09,0.91967,4
639.453,48.27500,      4.09424,  0.66972,50.00000,48.00000,3.830494e-09,0.91961,4
645.555,48.58000,      3.94914,  0.68130,50.00000,48.00000,3.829206e-09,0.91955,4
651.667,48.88500,      3.79486,  0.70894,50.00000,48.00000,3.828519e-09,0.91953,4
657.776,49.19000,      3.63431,  0.70894,50.00000,48.00000,3.833738e-09,0.91947,4
663.888,49.49500,      3.46593,  0.74106,50.00000,48.00000,3.840871e-09,0.91942,4
670.004,49.80000,      3.27506,  0.74797,50.00000,48.00000,3.828418e-09,0.91937,4
676.119,50.10500,      3.06978,  0.77561,50.00000,48.00000,3.825460e-09,0.91932,4
682.232,50.41000,      2.85741,  0.80305,50.00000,48.00000,3.823381e-09,0.91928,4
688.35,50.71500,      2.63413,  0.83069,50.00000,48.00000,3.823653e-09,0.91923,4
694.479,51.02000,      2.39730,  0.83069,50.00000,48.00000,3.827977e-09,0.91921,4
700.618,51.32500,      2.14547,  0.83069,50.00000,48.00000,3.836064e-09,0.91917,4
706.758,51.63000,      1.88225,  0.84451,50.00000,48.00000,3.834586e-09,0.91914,4
712.902,51.93500,      1.60722,  0.86524,50.00000,48.00000,3.826043e-09,0.91910,4
719.037,52.24000,      1.31341,  0.89289,50.00000,48.00000,3.831726e-09,0.91907,4
725.174,52.54500,      1.00318,  0.89289,50.00000,48.00000,3.836120e-09,0.91904,4
731.306,52.85000,      0.68549,  0.92033,50.00000,48.00000,3.833917e-09,0.91903,4
737.455,53.15500,      0.35569,  0.93415,50.00000,48.00000,3.836329e-09,0.91901,4
743.598,53.46000, 1.524712e-02,  0.94797,50.00000,48.00000,3.831571e-09,0.91899,4
749.733,53.76500,     -0.33328,  0.97561,50.00000,48.00000,3.829754e-09,0.91897,4
755.88,54.07000,     -0.68764,  0.99634,50.00000,48.00000,3.835849e-09,0.91895,4
762.016,54.37500,     -1.04923,  1.00325,50.00000,48.00000,3.833028e-09,0.91893,4
768.161,54.68000,     -1.40697,  1.03069,50.00000,48.00000,3.823085e-09,0.91892,4
774.301,54.98500,     -1.75872,  1.05833,50.00000,48.00000,3.821081e-09,0.91891,4
780.439,55.29000,     -2.11463,  1.05833,50.00000,48.00000,3.829769e-09,0.91891,4
786.574,55.59500,     -2.46030,  1.06524,50.00000,48.00000,3.828690e-09,0.91890,4
792.714,55.90000,     -2.79694,  1.09289,50.00000,48.00000,            ,0.44781,4
794.728,56.00000,     -2.90260,  1.10671,50.00000,48.00000,            ,0.44700,4