Folder: data-visualizer/data/TGA/ps_scf3_flynn_ozawa_wall/1K (part 3)

File: ExpDat_2025_11_13_SL_PSSCF3_005f_J3_5K_min.csv
#EXPORTTYPE:                 ,DATA ALL
#FILE:                       ,2025_11_13_SL_PSSCF3_005f_J3_5K_min.ngb-ss5
#FORMAT:                     ,NETZSCH5
#FTYPE:                      ,ASCII
#IDENTITY:                   ,005F-J3
#DECIMAL:                    ,POINT
#SEPARATOR:                  ,COMMA
#MTYPE:                      ,DSC
#INSTRUMENT:                 ,NETZSCH STA 449F5
#PROJECT:                    ,PS
#DATE/TIME:                  ,11/13/2025 5:00:49 PM (UTC-5)
#CORR. FILE:                 ,
#TEMPCAL:                    ,05-05-2025 14:38
#SENSITIVITY:                ,28-06-2023 13:53
#LABORATORY:                 ,Tran/AAG
#OPERATOR:                   ,Stan
#REMARK:                     ,
#SAMPLE:                     ,005F-J3
#SAMPLE MASS /mg:            ,4.0
#MATERIAL:                   ,
#REFERENCE:                  ,
#REFERENCE MASS /mg:         ,0
#TYPE OF CRUCIBLE:           ,Al2O3 85 ‘l, open
#SAMPLE CRUCIBLE MASS /mg:   ,0
#REFERENCE CRUCIBLE MASS /mg:,0
#DSC RANGE /‘V:              ,5000
#TG RANGE /mg:               ,35000
#TAU-R:                      ,---
#CORR. CODE:                 ,000
#EXO:                        ,-1
#RANGE:                      ,20›C....800›C/0.0....20.0K/min
#SEGMENT:                    ,S1-4/4
#SEG. 1:                     ,20›C/5.0(K/min)/100›C
#SEG. 2:                     ,100›C/00:05/100›C
#SEG. 3:                     ,100›C/5.0(K/min)/600›C
#SEG. 4:                     ,600›C/20.0(K/min)/800›C

##Temp./›C,Time/min,DSC/(mW/mg),Mass/%,Gas Flow(purge2)/(ml/min),Gas Flow(protective)/(ml/min),TIC(scan:1)/A,Sensit./(uV/mW),Segment
 25.30000,  0.00000,      1.03326,    100,50.00000,56.00000,            ,0.92261,1
 38.97800,  5.66667,      0.54955,     86.40700,50.00000,51.00000,3.607334e-09,0.92409,1
 67.11000, 11.33333,      1.63363,     89.01175,50.00000,51.00000,3.614892e-09,0.92458,1
100.188, 16.75000,      1.72328,     89.30875,50.00000,51.00000,3.620160e-09,0.92537,2
108.005, 21.00000,      0.18142,     86.24850,50.00000,51.00000,3.631041e-09,0.92598,2
108.477, 22.13333,      0.25224,     86.30800,50.00000,51.00000,3.633507e-09,0.92608,3
110.658, 23.26667,      0.68995,     86.89325,50.00000,51.00000,3.631525e-09,0.92616,3
113.656, 24.40000,      0.95062,     87.24125,50.00000,51.00000,3.631326e-09,0.92620,3
117.653, 25.53333,      1.26462,     87.79550,50.00000,51.00000,3.629786e-09,0.92619,3
122.598, 26.66667,      1.55169,     88.27075,50.00000,51.00000,3.632843e-09,0.92613,3
128.162, 27.80000,      1.77265,     88.62725,50.00000,51.00000,3.626416e-09,0.92604,3
134.189, 28.93333,      1.94405,     88.95800,50.00000,51.00000,3.631167e-09,0.92589,3
140.488, 30.06667,      2.06030,     89.19575,50.00000,51.00000,3.631011e-09,0.92568,3
146.864, 31.20000,      2.12695,     89.36525,50.00000,51.00000,3.630445e-09,0.92542,3
153.241, 32.33333,      2.16212,     89.50100,50.00000,51.00000,3.634227e-09,0.92511,3
159.524, 33.46667,      2.17235,     89.56900,50.00000,51.00000,3.626369e-09,0.92475,3
165.699, 34.60000,      2.16457,     89.64525,50.00000,51.00000,3.629681e-09,0.92439,3
171.733, 35.73333,      2.15157,     89.71325,50.00000,51.00000,3.631528e-09,0.92394,3
177.653, 36.86667,      2.13672,     89.72175,50.00000,51.00000,3.627623e-09,0.92343,3
183.508, 38.00000,      2.12415,     89.71325,50.00000,51.00000,3.640556e-09,0.92289,3
189.276, 39.13333,      2.11902,     89.70475,50.00000,51.00000,3.634275e-09,0.92231,3
195.006, 40.26667,      2.11780,     89.73875,50.00000,51.00000,3.627809e-09,0.92182,3
200.696, 41.40000,      2.12357,     89.67075,50.00000,51.00000,3.628783e-09,0.92135,3
206.36, 42.53333,      2.13755,     89.65375,50.00000,51.00000,3.634948e-09,0.92092,3
212.008, 43.66667,      2.15830,     89.54925,50.00000,51.00000,3.630215e-09,0.92056,3
217.645, 44.80000,      2.18328,     89.49825,50.00000,51.00000,3.629461e-09,0.92025,3
223.278, 45.93333,      2.20115,     89.38225,50.00000,51.00000,3.630086e-09,0.91998,3
228.909, 47.06667,      2.21607,     89.23525,50.00000,51.00000,3.630275e-09,0.91978,3
234.523, 48.20000,      2.24195,     89.04000,50.00000,51.00000,3.641770e-09,0.91956,3
240.17, 49.33333,      2.25819,     88.90425,50.00000,51.00000,3.628386e-09,0.91938,3
245.816, 50.46667,      2.27619,     88.65825,50.00000,51.00000,3.633654e-09,0.91922,3
251.452, 51.60000,      2.30055,     88.45450,50.00000,51.00000,3.628509e-09,0.91909,3
257.096, 52.73333,      2.32586,     88.18600,50.00000,51.00000,3.632371e-09,0.91899,3
262.757, 53.86667,      2.34823,     87.89750,50.00000,51.00000,3.634110e-09,0.91892,3
268.417, 55.00000,      2.36986,     87.57775,50.00000,51.00000,3.629406e-09,0.91889,3
274.049, 56.13333,      2.37751,     87.23275,50.00000,51.00000,3.632502e-09,0.91887,3
279.701, 57.26667,      2.40629,     86.81700,50.00000,51.00000,3.627746e-09,0.91887,3
285.351, 58.40000,      2.41938,     86.33625,50.00000,51.00000,3.624792e-09,0.91887,3
290.988, 59.53333,      2.44495,     85.73950,50.00000,51.00000,3.628799e-09,0.91887,3
296.636, 60.66667,      2.45654,     85.04350,50.00000,51.00000,3.627719e-09,0.91887,3
302.282, 61.80000,      2.48806,     84.16125,50.00000,51.00000,3.628100e-09,0.91887,3
307.925, 62.93333,      2.46433,     83.07500,50.00000,51.00000,3.634433e-09,0.91886,3
313.592, 64.06667,      2.45224,     81.86175,50.00000,51.00000,3.626445e-09,0.91886,3
319.235, 65.20000,      2.33212,     80.39950,50.00000,51.00000,3.624613e-09,0.91885,3
324.885, 66.33333,      2.51630,     78.88350,50.00000,51.00000,3.628247e-09,0.91883,3
330.56, 67.46667,      2.39186,     77.19775,50.00000,51.00000,3.627615e-09,0.91881,3
336.187, 68.60000,      2.42891,     75.13875,50.00000,51.00000,3.625702e-09,0.91879,3
341.849, 69.73333,      2.32297,     72.87325,50.00000,51.00000,3.627751e-09,0.91876,3
347.504, 70.86667,      2.58298,     70.22875,50.00000,51.00000,3.631705e-09,0.91872,3
353.163, 72.00000,      2.60502,     67.12050,50.00000,51.00000,3.624145e-09,0.91868,3
358.816, 73.13333,      2.47975,     63.38700,50.00000,51.00000,3.618182e-09,0.91864,3
364.47, 74.26667,      2.66497,     59.05675,50.00000,51.00000,3.629398e-09,0.91860,3
370.111, 75.40000,      2.62842,     54.11000,50.00000,51.00000,3.621544e-09,0.91855,3
375.762, 76.53333,      2.67610,     48.60875,50.00000,51.00000,3.618021e-09,0.91850,3
381.424, 77.66667,      2.63232,     42.55325,50.00000,51.00000,3.619345e-09,0.91845,3
387.079, 78.80000,      2.58372,     36.18675,50.00000,51.00000,3.619084e-09,0.91839,3
392.73, 79.93333,      2.46963,     29.77200,50.00000,51.00000,3.620723e-09,0.91833,3
398.399, 81.06667,      2.28315,     23.52150,50.00000,51.00000,3.626804e-09,0.91828,3
404.057, 82.20000,      1.96936,     17.62725,50.00000,51.00000,3.620235e-09,0.91822,3
409.718, 83.33333,      1.58399,     12.09775,50.00000,51.00000,3.623754e-09,0.91816,3
415.385, 84.46667,      1.17100,      7.22450,50.00000,51.00000,3.624347e-09,0.91809,3
421.06, 85.60000,      0.87485,      3.01600,50.00000,51.00000,3.620641e-09,0.91802,3
426.725, 86.73333,      0.62632,     -0.19700,50.00000,51.00000,3.625382e-09,0.91795,3
432.383, 87.86667,      0.37481,     -2.56450,50.00000,51.00000,3.618637e-09,0.91789,3
438.051, 89.00000,      0.16695,     -4.01825,50.00000,51.00000,3.616957e-09,0.91782,3
443.713, 90.13333,-1.285038e-02,     -4.67725,50.00000,51.00000,3.617732e-09,0.91775,3
[...]
494.683,100.333,     -1.01424,     -5.19200,50.00000,51.00000,3.616872e-09,0.91701,3
500.357,101.467,     -1.13149,     -5.19200,50.00000,51.00000,3.622475e-09,0.91691,3
506.03,102.6,     -1.24907,     -5.10700,50.00000,51.00000,3.616994e-09,0.91682,3
511.682,103.733,     -1.37523,     -5.12400,50.00000,51.00000,3.617499e-09,0.91672,3
517.368,104.867,     -1.48899,     -5.09025,50.00000,51.00000,3.621364e-09,0.91661,3
523.024,106,     -1.62068,     -5.05625,50.00000,51.00000,3.620708e-09,0.91650,3
528.7,107.133,     -1.73553,     -5.03925,50.00000,51.00000,3.629068e-09,0.91639,3
534.385,108.267,     -1.86464,     -5.01375,50.00000,51.00000,3.621410e-09,0.91628,3
540.061,109.4,     -1.99006,     -5.01375,50.00000,51.00000,3.614260e-09,0.91616,3
545.745,110.533,     -2.11070,     -4.97975,50.00000,51.00000,3.616353e-09,0.91605,3
551.406,111.667,     -2.23003,     -4.95450,50.00000,51.00000,3.612595e-09,0.91593,3
557.09,112.8,     -2.34844,     -4.94600,50.00000,51.00000,3.612002e-09,0.91581,3
562.769,113.933,     -2.46887,     -4.93750,50.00000,51.00000,3.624757e-09,0.91567,3
568.459,115.067,     -2.58247,     -4.92050,50.00000,51.00000,3.612282e-09,0.91554,3
574.135,116.2,     -2.69828,     -4.92900,50.00000,51.00000,3.625184e-09,0.91541,3
579.821,117.333,     -2.81397,     -4.90350,50.00000,51.00000,3.615820e-09,0.91528,3
585.502,118.467,     -2.92561,     -4.86950,50.00000,51.00000,3.612546e-09,0.91514,3
591.184,119.6,     -3.03557,     -4.87800,50.00000,51.00000,3.611499e-09,0.91500,3
596.875,120.733,     -3.13498,     -4.87800,50.00000,51.00000,3.615813e-09,0.91485,3
600.648,121.325,     -2.36943,     -4.76500,50.00000,51.00000,3.619426e-09,0.91477,4
608.301,121.75,      1.45465,     -4.44525,50.00000,51.00000,3.609281e-09,0.91473,4
617.449,122.175,      2.73639,     -4.30950,50.00000,51.00000,3.615273e-09,0.91466,4
625.242,122.6,      1.64132,     -4.36050,50.00000,51.00000,3.618240e-09,0.91462,4
632.568,123.025,      1.10306,     -4.32375,50.00000,51.00000,3.613843e-09,0.91456,4
640.478,123.45,      1.35102,     -4.22175,50.00000,51.00000,3.617107e-09,0.91451,4
648.837,123.875,      1.48447,     -4.15400,50.00000,51.00000,3.609325e-09,0.91444,4
657.274,124.3,      1.34499,     -4.08600,50.00000,51.00000,3.612973e-09,0.91438,4
665.743,124.725,      1.13618,     -4.02675,50.00000,51.00000,3.616260e-09,0.91433,4
674.313,125.15,      0.92301,     -3.98150,50.00000,51.00000,3.615573e-09,0.91427,4
682.935,125.575,      0.66606,     -3.93050,50.00000,51.00000,3.612104e-09,0.91422,4
691.619,126,      0.38379,     -3.87675,50.00000,51.00000,3.622136e-09,0.91415,4
700.309,126.425, 5.174418e-02,     -3.80900,50.00000,51.00000,3.620096e-09,0.91411,4
709.008,126.85,     -0.29400,     -3.77500,50.00000,51.00000,3.626076e-09,0.91404,4
717.721,127.275,     -0.66518,     -3.67325,50.00000,51.00000,3.620937e-09,0.91397,4
726.426,127.7,     -1.05986,     -3.63925,50.00000,51.00000,3.620479e-09,0.91392,4
735.129,128.125,     -1.47847,     -3.58825,50.00000,51.00000,3.611191e-09,0.91385,4
743.823,128.55,     -1.90717,     -3.52900,50.00000,51.00000,3.620873e-09,0.91381,4
752.51,128.975,     -2.33171,     -3.49500,50.00000,51.00000,3.620231e-09,0.91374,4
761.184,129.4,     -2.76058,     -3.42700,50.00000,51.00000,3.628038e-09,0.91369,4
769.846,129.825,     -3.18547,     -3.37625,50.00000,51.00000,3.613803e-09,0.91362,4
778.511,130.25,     -3.60125,     -3.32525,50.00000,51.00000,3.612636e-09,0.91354,4
787.166,130.675,     -3.98814,     -3.29975,50.00000,51.00000,3.620348e-09,0.91350,4
793.788,131,     -4.29410,     -3.25450,50.00000,51.00000,            ,0.44738,4

File: ExpDat_2025_11_13_SL_PSSCF3_005f_J3_10K_min.csv
#EXPORTTYPE:                 ,DATA ALL
#FILE:                       ,2025_11_13_SL_PSSCF3_005f_J3_10K_min.ngb-ss5
#FORMAT:                     ,NETZSCH5
#FTYPE:                      ,ASCII
#IDENTITY:                   ,005F-J3
#DECIMAL:                    ,POINT
#SEPARATOR:                  ,COMMA
#MTYPE:                      ,DSC
#INSTRUMENT:                 ,NETZSCH STA 449F5
#PROJECT:                    ,PS
#DATE/TIME:                  ,11/13/2025 2:11:34 PM (UTC-5)
#CORR. FILE:                 ,
#TEMPCAL:                    ,05-05-2025 14:38
#SENSITIVITY:                ,28-06-2023 13:53
#LABORATORY:                 ,Tran/AAG
#OPERATOR:                   ,Stan
#REMARK:                     ,
#SAMPLE:                     ,005F-J3
#SAMPLE MASS /mg:            ,4.0
#MATERIAL:                   ,
#REFERENCE:                  ,
#REFERENCE MASS /mg:         ,0
#TYPE OF CRUCIBLE:           ,Al2O3 85 ‘l, open
#SAMPLE CRUCIBLE MASS /mg:   ,0
#REFERENCE CRUCIBLE MASS /mg:,0
#DSC RANGE /‘V:              ,5000
#TG RANGE /mg:               ,35000
#TAU-R:                      ,---
#CORR. CODE:                 ,000
#EXO:                        ,-1
#RANGE:                      ,20›C....800›C/0.0....20.0K/min
#SEGMENT:                    ,S1-4/4
#SEG. 1:                     ,20›C/5.0(K/min)/100›C
#SEG. 2:                     ,100›C/00:05/100›C
#SEG. 3:                     ,100›C/10.0(K/min)/600›C
#SEG. 4:                     ,600›C/20.0(K/min)/800›C

##Temp./›C,Time/min,DSC/(mW/mg),Mass/%,Gas Flow(purge2)/(ml/min),Gas Flow(protective)/(ml/min),TIC(scan:1)/A,Sensit./(uV/mW),Segment
 35.04700, 0.00000,      4.02245,    100,50.00000,55.00000,            ,0.92441,1
 38.56600, 4.26667,      0.15137,     88.48000,50.00000,51.00000,3.612760e-09,0.92474,1
 50.69200, 8.53333,      1.55514,     91.13875,50.00000,51.00000,3.630121e-09,0.92484,1
 75.53200,12.80000,      2.53350,     93.29100,50.00000,51.00000,3.639968e-09,0.92503,1
100.059,16.79917,      2.48760,     93.31100,50.00000,51.00000,3.649052e-09,0.92545,2
107.775,19.99917,      0.71193,     90.72300,50.00000,51.00000,3.656426e-09,0.92587,2
108.239,21.43917,      0.23935,     90.03000,50.00000,51.00000,3.660805e-09,0.92603,3
109.331,22.07917,      0.66681,     91.02275,50.00000,51.00000,3.649469e-09,0.92607,3
111.92,22.71917,      1.52328,     92.07500,50.00000,51.00000,3.648499e-09,0.92612,3
115.383,23.35917,      2.22829,     92.78775,50.00000,51.00000,3.652602e-09,0.92616,3
119.347,23.99917,      2.72656,     93.38725,50.00000,51.00000,3.651605e-09,0.92619,3
123.991,24.63917,      3.25255,     94.11700,50.00000,51.00000,3.648473e-09,0.92620,3
129.454,25.27917,      3.85768,     94.82975,50.00000,51.00000,3.648006e-09,0.92620,3
135.658,25.91917,      4.43861,     95.37550,50.00000,51.00000,3.652762e-09,0.92618,3
142.336,26.55917,      4.92072,     95.85350,50.00000,51.00000,3.652920e-09,0.92616,3
149.372,27.19917,      5.30634,     96.21000,50.00000,51.00000,3.653735e-09,0.92612,3
156.678,27.83917,      5.61576,     96.54100,50.00000,51.00000,3.650838e-09,0.92606,3
164.152,28.47917,      5.85220,     96.78125,50.00000,51.00000,3.656076e-09,0.92598,3
171.644,29.11917,      6.00920,     96.98500,50.00000,51.00000,3.652132e-09,0.92589,3
179.156,29.75917,      6.09601,     97.08675,50.00000,51.00000,3.650888e-09,0.92578,3
186.626,30.39917,      6.13595,     97.18850,50.00000,51.00000,3.654219e-09,0.92565,3
194.032,31.03917,      6.13873,     97.25650,50.00000,51.00000,3.648227e-09,0.92554,3
201.32,31.67917,      6.11014,     97.26500,50.00000,51.00000,3.655718e-09,0.92537,3
208.494,32.31917,      6.06295,     97.26500,50.00000,51.00000,3.648539e-09,0.92520,3
215.546,32.95917,      6.00529,     97.22525,50.00000,51.00000,3.659783e-09,0.92500,3
222.474,33.59917,      5.94485,     97.19150,50.00000,51.00000,3.659467e-09,0.92479,3
229.305,34.23917,      5.88431,     97.05575,50.00000,51.00000,3.656877e-09,0.92456,3
236.033,34.87917,      5.82668,     96.95375,50.00000,51.00000,3.660828e-09,0.92431,3
242.688,35.51917,      5.76960,     96.81525,50.00000,51.00000,3.660134e-09,0.92411,3
249.272,36.15917,      5.71688,     96.64550,50.00000,51.00000,3.658259e-09,0.92384,3
255.791,36.79917,      5.68150,     96.47575,50.00000,51.00000,3.663851e-09,0.92355,3
262.261,37.43917,      5.65662,     96.26925,50.00000,51.00000,3.658352e-09,0.92324,3
268.707,38.07917,      5.63578,     95.99225,50.00000,51.00000,3.653767e-09,0.92292,3
275.134,38.71917,      5.60915,     95.68100,50.00000,51.00000,3.651678e-09,0.92259,3
281.512,39.35917,      5.58845,     95.33600,50.00000,51.00000,3.659530e-09,0.92224,3
287.878,39.99917,      5.56969,     94.88350,50.00000,51.00000,3.643901e-09,0.92199,3
294.242,40.63917,      5.55775,     94.38575,50.00000,51.00000,3.655206e-09,0.92172,3
300.57,41.27917,      5.55445,     93.77750,50.00000,51.00000,3.655492e-09,0.92145,3
306.914,41.91917,      5.55931,     92.94900,50.00000,51.00000,3.653545e-09,0.92119,3
313.248,42.55917,      5.56490,     91.91100,50.00000,51.00000,3.647566e-09,0.92096,3
319.58,43.19917,      5.58492,     90.72575,50.00000,51.00000,3.646412e-09,0.92073,3
325.925,43.83917,      5.62201,     89.26650,50.00000,51.00000,3.646348e-09,0.92053,3
332.263,44.47917,      5.63229,     87.77025,50.00000,51.00000,3.651884e-09,0.92039,3
338.595,45.11917,      5.65091,     85.96575,50.00000,51.00000,3.652217e-09,0.92022,3
344.922,45.75917,      5.66139,     84.10750,50.00000,51.00000,3.649915e-09,0.92006,3
351.275,46.39917,      5.69807,     81.90975,50.00000,51.00000,3.655492e-09,0.91992,3
357.621,47.03917,      5.79437,     79.36725,50.00000,51.00000,3.651542e-09,0.91978,3
363.964,47.67917,      5.84151,     76.45675,50.00000,51.00000,3.645189e-09,0.91966,3
370.316,48.31917,      5.92117,     72.94400,50.00000,51.00000,3.646552e-09,0.91956,3
376.657,48.95917,      5.99392,     68.74675,50.00000,51.00000,3.656100e-09,0.91944,3
383.011,49.59917,      6.07132,     63.68675,50.00000,51.00000,3.643126e-09,0.91934,3
389.356,50.23917,      6.15516,     57.81800,50.00000,51.00000,3.653977e-09,0.91924,3
395.718,50.87917,      6.20798,     51.18825,50.00000,51.00000,3.660125e-09,0.91916,3
402.07,51.51917,      6.20911,     43.78650,50.00000,51.00000,3.650241e-09,0.91907,3
408.427,52.15917,      6.14895,     36.20375,50.00000,51.00000,3.647652e-09,0.91901,3
414.785,52.79917,      6.02809,     28.57000,50.00000,51.00000,3.652414e-09,0.91896,3
421.156,53.43917,      5.84647,     21.19100,50.00000,51.00000,3.652295e-09,0.91892,3
427.519,54.07917,      5.61578,     14.40000,50.00000,51.00000,3.655090e-09,0.91889,3
433.91,54.71917,      5.30189,      8.55675,50.00000,51.00000,3.644029e-09,0.91885,3
440.256,55.35917,      4.76116,      4.02850,50.00000,51.00000,3.653873e-09,0.91884,3
446.629,55.99917,      4.18244,      0.76175,50.00000,51.00000,3.648423e-09,0.91882,3
453.008,56.63917,      3.88763,     -1.16725,50.00000,51.00000,3.641857e-09,0.91882,3
459.388,57.27917,      3.63360,     -2.09500,50.00000,51.00000,3.647074e-09,0.91882,3
465.759,57.91917,      3.44940,     -2.28450,50.00000,51.00000,3.649113e-09,0.91882,3
472.144,58.55917,      3.30907,     -2.30125,50.00000,51.00000,3.640056e-09,0.91882,3
478.513,59.19917,      3.17540,     -2.34375,50.00000,51.00000,3.647481e-09,0.91882,3
[...]
535.978,64.95917,      1.96963,     -2.13450,50.00000,51.00000,3.646132e-09,0.91879,3
542.377,65.59917,      1.82422,     -2.07500,50.00000,51.00000,3.651021e-09,0.91878,3
548.79,66.23917,      1.67096,     -2.04125,50.00000,51.00000,3.647902e-09,0.91876,3
555.191,66.87917,      1.51642,     -2.04125,50.00000,51.00000,3.645108e-09,0.91875,3
561.608,67.51917,      1.35830,     -2.01575,50.00000,51.00000,3.651642e-09,0.91874,3
568.021,68.15917,      1.19246,     -1.99025,50.00000,51.00000,3.641477e-09,0.91872,3
574.435,68.79917,      1.02912,     -1.96475,50.00000,51.00000,3.643334e-09,0.91870,3
580.852,69.43917,      0.86496,     -1.96475,50.00000,51.00000,3.642843e-09,0.91869,3
587.27,70.07917,      0.69651,     -1.96475,50.00000,51.00000,3.643662e-09,0.91866,3
593.701,70.71917,      0.53504,     -1.94775,50.00000,51.00000,3.643232e-09,0.91864,3
598.409,71.17917,      0.48511,     -1.93925,50.00000,51.00000,3.641846e-09,0.91862,4
603.234,71.49917,      2.15418,     -1.76975,50.00000,51.00000,3.643899e-09,0.91861,4
609.757,71.81917,      4.61297,     -1.60850,50.00000,51.00000,3.642811e-09,0.91860,4
616.521,72.13917,      5.57275,     -1.53200,50.00000,51.00000,3.647229e-09,0.91859,4
622.713,72.45917,      5.08343,     -1.53200,50.00000,51.00000,3.633011e-09,0.91857,4
628.541,72.77917,      4.36940,     -1.55175,50.00000,51.00000,3.642095e-09,0.91856,4
634.425,73.09917,      4.10746,     -1.48400,50.00000,51.00000,3.645753e-09,0.91854,4
640.584,73.41917,      4.18670,     -1.45000,50.00000,51.00000,3.640536e-09,0.91853,4
646.927,73.73917,      4.26465,     -1.41600,50.00000,51.00000,3.639828e-09,0.91851,4
653.307,74.05917,      4.17615,     -1.37925,50.00000,51.00000,3.643294e-09,0.91849,4
659.691,74.37917,      3.98085,     -1.36225,50.00000,51.00000,3.642474e-09,0.91847,4
666.105,74.69917,      3.76265,     -1.32850,50.00000,51.00000,3.645788e-09,0.91846,4
672.555,75.01917,      3.54297,     -1.31150,50.00000,51.00000,3.642439e-09,0.91844,4
679.018,75.33917,      3.31638,     -1.27750,50.00000,51.00000,3.642544e-09,0.91841,4
685.518,75.65917,      3.05350,     -1.27750,50.00000,51.00000,3.642680e-09,0.91839,4
692.018,75.97917,      2.75831,     -1.24350,50.00000,51.00000,3.646357e-09,0.91838,4
698.524,76.29917,      2.44635,     -1.21250,50.00000,51.00000,3.637479e-09,0.91837,4
705.045,76.61917,      2.12569,     -1.17850,50.00000,51.00000,3.640206e-09,0.91834,4
711.568,76.93917,      1.78436,     -1.14450,50.00000,51.00000,3.634856e-09,0.91832,4
718.083,77.25917,      1.42124,     -1.11075,50.00000,51.00000,3.640900e-09,0.91830,4
724.611,77.57917,      1.04811,     -1.07675,50.00000,51.00000,3.638251e-09,0.91828,4
731.124,77.89917,      0.67369,     -1.04275,50.00000,51.00000,3.632307e-09,0.91826,4
737.654,78.21917,      0.27860,     -1.04275,50.00000,51.00000,3.639561e-09,0.91823,4
744.17,78.53917,     -0.13134,     -1.00875,50.00000,51.00000,3.632093e-09,0.91821,4
750.675,78.85917,     -0.54197,     -0.99175,50.00000,51.00000,3.638281e-09,0.91818,4
757.188,79.17917,     -0.95159,     -0.94100,50.00000,51.00000,3.633112e-09,0.91816,4
763.688,79.49917,     -1.35929,     -0.94100,50.00000,51.00000,3.635554e-09,0.91814,4
770.189,79.81917,     -1.76501,     -0.90700,50.00000,51.00000,3.645778e-09,0.91811,4
776.682,80.13917,     -2.16277,     -0.89575,50.00000,51.00000,3.641343e-09,0.91809,4
783.172,80.45917,     -2.56722,     -0.82775,50.00000,51.00000,3.633439e-09,0.91807,4
789.656,80.77917,     -2.94234,     -0.78525,50.00000,51.00000,            ,0.44904,4
794.113,80.99917,     -3.19635,     -0.79375,50.00000,51.00000,            ,0.44725,4