Folder: data-visualizer/data/TGA/ps_scf3_flynn_ozawa_wall/1K (part 4)

File: ExpDat_2025_11_13_SL_PSSCF3_005f_J3_15K_min.csv
#EXPORTTYPE:                 ,DATA ALL
#FILE:                       ,2025_11_13_SL_PSSCF3_005f_J3_15K_min.ngb-ss5
#FORMAT:                     ,NETZSCH5
#FTYPE:                      ,ASCII
#IDENTITY:                   ,005f-J3
#DECIMAL:                    ,POINT
#SEPARATOR:                  ,COMMA
#MTYPE:                      ,DSC
#INSTRUMENT:                 ,NETZSCH STA 449F5
#PROJECT:                    ,PS
#DATE/TIME:                  ,11/13/2025 11:49:19 AM (UTC-5)
#CORR. FILE:                 ,
#TEMPCAL:                    ,05-05-2025 14:38
#SENSITIVITY:                ,28-06-2023 13:53
#LABORATORY:                 ,Tran/AAG
#OPERATOR:                   ,Stan
#REMARK:                     ,
#SAMPLE:                     ,005f-J3
#SAMPLE MASS /mg:            ,4.25
#MATERIAL:                   ,
#REFERENCE:                  ,
#REFERENCE MASS /mg:         ,0
#TYPE OF CRUCIBLE:           ,Al2O3 85 ‘l, open
#SAMPLE CRUCIBLE MASS /mg:   ,0
#REFERENCE CRUCIBLE MASS /mg:,0
#DSC RANGE /‘V:              ,5000
#TG RANGE /mg:               ,35000
#TAU-R:                      ,---
#CORR. CODE:                 ,000
#EXO:                        ,-1
#RANGE:                      ,20›C....800›C/0.0....20.0K/min
#SEGMENT:                    ,S1-4/4
#SEG. 1:                     ,20›C/5.0(K/min)/100›C
#SEG. 2:                     ,100›C/00:05/100›C
#SEG. 3:                     ,100›C/15.0(K/min)/600›C
#SEG. 4:                     ,600›C/20.0(K/min)/800›C

##Temp./›C,Time/min,DSC/(mW/mg),Mass/%,Gas Flow(purge2)/(ml/min),Gas Flow(protective)/(ml/min),TIC(scan:1)/A,Sensit./(uV/mW),Segment
 33.06700, 0.00000,      2.49373,    100,50.00000,53.00000,            ,0.92409,1
 43.74700, 4.26667,      0.13170,     85.54282,50.00000,49.00000,3.613450e-09,0.92516,1
 49.38200, 8.53333,      0.83929,     86.39718,50.00000,49.00000,3.619770e-09,0.92544,1
 71.96600,12.80000,      2.03570,     89.27765,50.00000,50.00000,3.632347e-09,0.92550,1
 98.00100,16.80000,      2.16000,     89.82071,50.00000,50.00000,3.635157e-09,0.92558,2
107.003,20.00000,      0.67145,     87.62188,50.00000,50.00000,3.641333e-09,0.92581,2
107.844,21.29333,      0.27838,     86.87106,50.00000,50.00000,3.635699e-09,0.92592,3
108.511,21.72000,      0.45742,     87.49671,50.00000,50.00000,3.646867e-09,0.92595,3
110.315,22.14667,      1.07023,     88.67859,50.00000,50.00000,3.641703e-09,0.92599,3
113.227,22.57333,      1.87798,     89.71153,50.00000,50.00000,3.645574e-09,0.92602,3
116.821,23.00000,      2.59547,     90.51271,50.00000,50.00000,3.639916e-09,0.92605,3
120.791,23.42667,      3.13009,     91.04235,50.00000,50.00000,3.635828e-09,0.92608,3
125.115,23.85333,      3.56576,     91.56682,50.00000,50.00000,3.640083e-09,0.92611,3
129.92,24.28000,      4.02436,     92.09129,50.00000,50.00000,3.639539e-09,0.92614,3
135.348,24.70667,      4.55907,     92.71412,50.00000,50.00000,3.643913e-09,0.92615,3
141.386,25.13333,      5.13396,     93.30235,50.00000,50.00000,3.642264e-09,0.92618,3
147.907,25.56000,      5.68651,     93.75506,50.00000,50.00000,3.643256e-09,0.92619,3
154.802,25.98667,      6.16763,     94.10094,50.00000,50.00000,3.640280e-09,0.92620,3
161.939,26.41333,      6.57098,     94.39647,50.00000,50.00000,3.649784e-09,0.92620,3
169.301,26.84000,      6.91780,     94.63341,50.00000,50.00000,3.647788e-09,0.92620,3
176.82,27.26667,      7.21352,     94.82518,50.00000,50.00000,3.649751e-09,0.92619,3
184.472,27.69333,      7.45983,     94.95294,50.00000,50.00000,3.639508e-09,0.92618,3
192.22,28.12000,      7.64633,     95.04871,50.00000,50.00000,3.646641e-09,0.92616,3
199.948,28.54667,      7.76335,     95.08071,50.00000,50.00000,3.639536e-09,0.92614,3
207.616,28.97333,      7.82381,     95.08071,50.00000,50.00000,3.641242e-09,0.92610,3
215.215,29.40000,      7.84063,     95.04871,50.00000,50.00000,3.647836e-09,0.92605,3
222.734,29.82667,      7.82807,     94.98471,50.00000,50.00000,3.645370e-09,0.92602,3
230.166,30.25333,      7.80033,     94.91294,50.00000,50.00000,3.645845e-09,0.92595,3
237.509,30.68000,      7.75289,     94.78518,50.00000,50.00000,3.645763e-09,0.92590,3
244.764,31.10667,      7.69033,     94.62282,50.00000,50.00000,3.644345e-09,0.92582,3
251.916,31.53333,      7.61660,     94.46306,50.00000,50.00000,3.652555e-09,0.92576,3
258.952,31.96000,      7.53098,     94.23153,50.00000,50.00000,3.650574e-09,0.92566,3
265.921,32.38667,      7.44752,     93.96518,50.00000,50.00000,3.649348e-09,0.92555,3
272.796,32.81333,      7.36373,     93.69365,50.00000,50.00000,3.647456e-09,0.92547,3
279.583,33.24000,      7.28243,     93.37435,50.00000,50.00000,3.646797e-09,0.92534,3
286.295,33.66667,      7.20101,     92.94306,50.00000,50.00000,3.646027e-09,0.92525,3
292.941,34.09333,      7.14026,     92.49859,50.00000,50.00000,3.642243e-09,0.92510,3
299.529,34.52000,      7.08949,     91.95553,50.00000,50.00000,3.642268e-09,0.92499,3
306.078,34.94667,      7.04465,     91.22071,50.00000,50.00000,3.648341e-09,0.92483,3
312.582,35.37333,      7.02683,     90.35576,50.00000,50.00000,3.647542e-09,0.92465,3
319.056,35.80000,      7.02065,     89.27765,50.00000,50.00000,3.643542e-09,0.92453,3
325.503,36.22667,      7.10821,     87.92000,50.00000,50.00000,3.639418e-09,0.92433,3
331.915,36.65333,      7.34238,     86.34141,50.00000,50.00000,3.641298e-09,0.92420,3
338.306,37.08000,      7.43997,     84.57906,50.00000,50.00000,3.646642e-09,0.92398,3
344.684,37.50667,      7.54439,     82.59859,50.00000,50.00000,3.636011e-09,0.92383,3
351.034,37.93333,      7.65343,     80.41576,50.00000,50.00000,3.648351e-09,0.92360,3
357.383,38.36000,      7.76128,     77.92965,50.00000,50.00000,3.650833e-09,0.92336,3
363.727,38.78667,      7.86066,     75.16376,50.00000,50.00000,3.643657e-09,0.92320,3
370.048,39.21333,      7.96903,     71.88165,50.00000,50.00000,3.640648e-09,0.92294,3
376.373,39.64000,      8.05520,     68.11482,50.00000,50.00000,3.645781e-09,0.92276,3
382.7,40.06667,      8.20135,     63.68541,50.00000,50.00000,3.645691e-09,0.92251,3
389.024,40.49333,      8.32052,     58.59835,50.00000,50.00000,3.649454e-09,0.92231,3
395.354,40.92000,      8.43781,     52.76847,50.00000,50.00000,3.644820e-09,0.92217,3
401.683,41.34667,      8.51718,     46.27341,50.00000,50.00000,3.645138e-09,0.92196,3
407.986,41.77333,      8.56071,     39.25647,50.00000,50.00000,3.653281e-09,0.92183,3
414.317,42.20000,      8.53343,     31.93859,50.00000,50.00000,3.646009e-09,0.92163,3
420.633,42.62667,      8.40687,     24.68729,50.00000,50.00000,3.650253e-09,0.92151,3
426.95,43.05333,      8.08672,     18.07247,50.00000,50.00000,3.650490e-09,0.92133,3
433.289,43.48000,      7.59371,     12.27200,50.00000,50.00000,3.649541e-09,0.92116,3
439.61,43.90667,      7.01816,      7.48565,50.00000,50.00000,3.643191e-09,0.92106,3
445.959,44.33333,      6.52559,      3.83882,50.00000,50.00000,3.645144e-09,0.92090,3
452.297,44.76000,      6.09839,      1.41106,50.00000,50.00000,3.645147e-09,0.92081,3
458.624,45.18667,      5.79137,      0.15200,50.00000,50.00000,3.653025e-09,0.92067,3
464.955,45.61333,      5.58801,     -0.19929,50.00000,50.00000,3.642189e-09,0.92053,3
471.288,46.04000,      5.45734,     -0.22329,50.00000,50.00000,3.649264e-09,0.92045,3
477.639,46.46667,      5.34498,     -0.28729,50.00000,50.00000,3.654473e-09,0.92033,3
[...]
534.739,50.30667,      4.34075,     -0.10894,50.00000,50.00000,3.643595e-09,0.91953,3
541.107,50.73333,      4.21758,-7.694118e-02,50.00000,50.00000,3.643009e-09,0.91946,3
547.494,51.16000,      4.08729,-7.764706e-03,50.00000,50.00000,3.646566e-09,0.91940,3
553.874,51.58667,      3.95280,-3.976471e-02,50.00000,50.00000,3.646610e-09,0.91934,3
560.262,52.01333,      3.80650, 8.235294e-03,50.00000,50.00000,3.642164e-09,0.91929,3
566.654,52.44000,      3.67867, 4.023529e-02,50.00000,50.00000,3.646662e-09,0.91923,3
573.057,52.86667,      3.54133, 7.223529e-02,50.00000,50.00000,3.644245e-09,0.91920,3
579.461,53.29333,      3.39657,      0.10400,50.00000,50.00000,3.642511e-09,0.91914,3
585.858,53.72000,      3.24656,      0.13600,50.00000,50.00000,3.643584e-09,0.91910,3
592.264,54.14667,      3.10091,      0.16800,50.00000,50.00000,3.652534e-09,0.91907,3
597.829,54.51333,      2.99893,      0.18400,50.00000,50.00000,3.649140e-09,0.91905,4
603.439,54.83333,      3.69284,      0.26376,50.00000,50.00000,3.658758e-09,0.91903,4
609.919,55.15333,      4.70758,      0.34376,50.00000,50.00000,3.651571e-09,0.91901,4
616.514,55.47333,      5.00922,      0.43412,50.00000,50.00000,3.647664e-09,0.91899,4
622.816,55.79333,      4.67963,      0.40212,50.00000,50.00000,3.657186e-09,0.91898,4
628.931,56.11333,      4.25855,      0.41294,50.00000,50.00000,3.646714e-09,0.91896,4
635.086,56.43333,      4.05165,      0.41294,50.00000,50.00000,3.641247e-09,0.91895,4
641.384,56.75333,      3.99416,      0.47671,50.00000,50.00000,3.648752e-09,0.91895,4
647.772,57.07333,      3.89900,      0.49812,50.00000,50.00000,3.646932e-09,0.91895,4
654.174,57.39333,      3.74397,      0.54588,50.00000,50.00000,3.642998e-09,0.91895,4
660.565,57.71333,      3.53783,      0.54588,50.00000,50.00000,3.642973e-09,0.91895,4
666.997,58.03333,      3.32383,      0.57788,50.00000,50.00000,3.649627e-09,0.91895,4
673.427,58.35333,      3.10319,      0.58588,50.00000,50.00000,3.640735e-09,0.91895,4
679.876,58.67333,      2.88606,      0.61788,50.00000,50.00000,3.645878e-09,0.91894,4
686.344,58.99333,      2.66601,      0.67365,50.00000,50.00000,3.645039e-09,0.91894,4
692.809,59.31333,      2.41039,      0.67365,50.00000,50.00000,3.654774e-09,0.91894,4
699.295,59.63333,      2.15223,      0.68165,50.00000,50.00000,3.644461e-09,0.91894,4
705.781,59.95333,      1.88372,      0.71365,50.00000,50.00000,3.645991e-09,0.91894,4
712.256,60.27333,      1.60137,      0.73765,50.00000,50.00000,3.643089e-09,0.91894,4
718.743,60.59333,      1.30955,      0.77765,50.00000,50.00000,3.652341e-09,0.91894,4
725.221,60.91333,      0.99681,      0.74565,50.00000,50.00000,3.646432e-09,0.91894,4
731.701,61.23333,      0.67691,      0.80941,50.00000,50.00000,3.641611e-09,0.91893,4
738.17,61.55333,      0.34520,      0.80941,50.00000,50.00000,3.643859e-09,0.91893,4
744.66,61.87333,-2.227644e-02,      0.84141,50.00000,50.00000,3.639608e-09,0.91893,4
751.125,62.19333,     -0.38050,      0.84141,50.00000,50.00000,3.643196e-09,0.91893,4
757.605,62.51333,     -0.74947,      0.86541,50.00000,51.00000,3.643478e-09,0.91893,4
764.082,62.83333,     -1.12269,      0.90000,50.00000,51.00000,3.650493e-09,0.91893,4
770.549,63.15333,     -1.49232,      0.90000,50.00000,51.00000,3.653888e-09,0.91892,4
777.011,63.47333,     -1.85985,      0.93200,50.00000,51.00000,3.644939e-09,0.91892,4
783.485,63.79333,     -2.22764,      0.93200,50.00000,51.00000,3.644698e-09,0.91892,4
789.948,64.11333,     -2.61643,      0.96400,50.00000,51.00000,            ,0.44892,4
794.394,64.33333,     -2.85573,      0.96400,50.00000,51.00000,            ,0.44713,4

File: ExpDat_2025_11_13_SL_PSSCF3_005f_J3_20K_min.csv
#EXPORTTYPE:                 ,DATA ALL
#FILE:                       ,2025_11_13_SL_PSSCF3_005f_J3_20K_min.ngb-ss5
#FORMAT:                     ,NETZSCH5
#FTYPE:                      ,ASCII
#IDENTITY:                   ,005f-J3
#DECIMAL:                    ,POINT
#SEPARATOR:                  ,COMMA
#MTYPE:                      ,DSC
#INSTRUMENT:                 ,NETZSCH STA 449F5
#PROJECT:                    ,PS
#DATE/TIME:                  ,11/13/2025 9:52:29 AM (UTC-5)
#CORR. FILE:                 ,
#TEMPCAL:                    ,05-05-2025 14:38
#SENSITIVITY:                ,28-06-2023 13:53
#LABORATORY:                 ,Tran/AAG
#OPERATOR:                   ,Stan
#REMARK:                     ,
#SAMPLE:                     ,005f-J3
#SAMPLE MASS /mg:            ,4.0
#MATERIAL:                   ,
#REFERENCE:                  ,
#REFERENCE MASS /mg:         ,0
#TYPE OF CRUCIBLE:           ,Al2O3 85 ‘l, open
#SAMPLE CRUCIBLE MASS /mg:   ,0
#REFERENCE CRUCIBLE MASS /mg:,0
#DSC RANGE /‘V:              ,5000
#TG RANGE /mg:               ,35000
#TAU-R:                      ,---
#CORR. CODE:                 ,000
#EXO:                        ,-1
#RANGE:                      ,20›C....800›C/0.0....20.0K/min
#SEGMENT:                    ,S1-4/4
#SEG. 1:                     ,20›C/5.0(K/min)/100›C
#SEG. 2:                     ,100›C/00:05/100›C
#SEG. 3:                     ,100›C/20.0(K/min)/600›C
#SEG. 4:                     ,600›C/20.0(K/min)/800›C

##Temp./›C,Time/min,DSC/(mW/mg),Mass/%,Gas Flow(purge2)/(ml/min),Gas Flow(protective)/(ml/min),TIC(scan:1)/A,Sensit./(uV/mW),Segment
 32.97400, 0.00000,      0.53789,100,50.00000,48.00000,            ,0.92408,1
 36.17300, 4.00000,      0.32203, 90.20525,50.00000,48.00000,3.628229e-09,0.92426,1
 49.27000, 8.00000,      1.57608, 92.85550,50.00000,48.00000,3.650992e-09,0.92443,1
 72.42900,12.00000,      2.37383, 94.66850,50.00000,48.00000,3.661503e-09,0.92476,1
 96.68600,15.98333,      2.48378, 95.19750,50.00000,48.00000,3.659977e-09,0.92534,2
106.708,18.98333,      0.95715, 92.98550,50.00000,48.00000,3.673063e-09,0.92579,2
108.096,21.03833,      0.21277, 91.76100,50.00000,48.00000,3.670716e-09,0.92602,3
108.196,21.33833,      0.20427, 91.85150,50.00000,48.00000,3.667027e-09,0.92606,3
108.827,21.63833,      0.48378, 92.68875,50.00000,48.00000,3.673194e-09,0.92608,3
110.28,21.93833,      1.14105, 93.99825,50.00000,48.00000,3.672403e-09,0.92611,3
112.63,22.23833,      2.07353, 95.31325,50.00000,48.00000,3.669298e-09,0.92612,3
115.708,22.53833,      3.08684, 96.47300,50.00000,48.00000,3.673460e-09,0.92614,3
119.286,22.83833,      4.01232, 97.33275,50.00000,48.00000,3.673962e-09,0.92616,3
123.171,23.13833,      4.76740, 97.97775,50.00000,48.00000,3.674817e-09,0.92618,3
127.278,23.43833,      5.37026, 98.47550,50.00000,48.00000,3.666236e-09,0.92619,3
131.614,23.73833,      5.88423, 98.94775,50.00000,48.00000,3.669826e-09,0.92619,3
136.269,24.03833,      6.40017, 99.49650,50.00000,48.00000,3.668759e-09,0.92620,3
141.304,24.33833,      6.96853, 99.98575,50.00000,48.00000,3.675698e-09,0.92620,3
146.785,24.63833,      7.60297,100.529,50.00000,48.00000,3.660590e-09,0.92620,3
152.669,24.93833,      8.28073,101.086,50.00000,48.00000,3.671182e-09,0.92619,3
158.906,25.23833,      8.95458,101.507,50.00000,48.00000,3.674969e-09,0.92619,3
165.404,25.53833,      9.57823,101.813,50.00000,48.00000,3.676296e-09,0.92618,3
172.098,25.83833,     10.12768,102.07,50.00000,48.00000,3.672689e-09,0.92616,3
178.965,26.13833,     10.60136,102.316,50.00000,48.00000,3.666960e-09,0.92615,3
185.96,26.43833,     11.00659,102.418,50.00000,48.00000,3.676446e-09,0.92612,3
193.067,26.73833,     11.36109,102.557,50.00000,48.00000,3.673273e-09,0.92609,3
200.254,27.03833,     11.66974,102.636,50.00000,48.00000,3.666214e-09,0.92606,3
207.507,27.33833,     11.94084,102.681,50.00000,48.00000,3.675956e-09,0.92605,3
214.784,27.63833,     12.16719,102.681,50.00000,48.00000,3.674976e-09,0.92601,3
222.076,27.93833,     12.34454,102.647,50.00000,48.00000,3.672361e-09,0.92597,3
229.348,28.23833,     12.47418,102.546,50.00000,48.00000,3.673081e-09,0.92592,3
236.59,28.53833,     12.55648,102.407,50.00000,48.00000,3.674701e-09,0.92587,3
243.782,28.83833,     12.59828,102.198,50.00000,48.00000,3.671926e-09,0.92581,3
250.927,29.13833,     12.60431,101.977,50.00000,48.00000,3.673008e-09,0.92578,3
257.988,29.43833,     12.57797,101.725,50.00000,48.00000,3.674916e-09,0.92572,3
264.989,29.73833,     12.52659,101.428,50.00000,48.00000,3.676365e-09,0.92566,3
271.919,30.03833,     12.45561,101.035,50.00000,48.00000,3.677584e-09,0.92559,3
278.766,30.33833,     12.37298,100.619,50.00000,48.00000,3.673374e-09,0.92551,3
285.541,30.63833,     12.28439,100.198,50.00000,48.00000,3.676403e-09,0.92543,3
292.241,30.93833,     12.18374, 99.65200,50.00000,48.00000,3.671442e-09,0.92539,3
298.871,31.23833,     12.08133, 99.11175,50.00000,48.00000,3.666741e-09,0.92531,3
305.417,31.53833,     11.97973, 98.41900,50.00000,48.00000,3.669890e-09,0.92522,3
311.915,31.83833,     11.88796, 97.65250,50.00000,48.00000,3.668999e-09,0.92513,3
318.347,32.13833,     11.80540, 96.71050,50.00000,48.00000,3.676363e-09,0.92503,3
324.722,32.43833,     11.73180, 95.62725,50.00000,48.00000,3.674701e-09,0.92498,3
331.04,32.73833,     11.68037, 94.34325,50.00000,48.00000,3.673862e-09,0.92488,3
337.305,33.03833,     11.63337, 92.89225,50.00000,48.00000,3.670402e-09,0.92477,3
343.541,33.33833,     11.59118, 91.33100,50.00000,48.00000,3.678508e-09,0.92466,3
349.72,33.63833,     11.55188, 89.64250,50.00000,48.00000,3.671636e-09,0.92455,3
355.853,33.93833,     11.52628, 87.77875,50.00000,48.00000,3.671865e-09,0.92443,3
361.969,34.23833,     11.52556, 85.70275,50.00000,48.00000,3.665702e-09,0.92437,3
368.048,34.53833,     11.53412, 83.34375,50.00000,48.00000,3.668454e-09,0.92424,3
374.108,34.83833,     11.55212, 80.73600,50.00000,48.00000,3.664300e-09,0.92412,3
380.134,35.13833,     11.59291, 77.76900,50.00000,48.00000,3.669780e-09,0.92399,3
386.152,35.43833,     11.64847, 74.24775,50.00000,48.00000,3.670317e-09,0.92385,3
392.128,35.73833,     11.72862, 70.42100,50.00000,48.00000,3.680667e-09,0.92371,3
398.123,36.03833,     11.82553, 65.96075,50.00000,48.00000,3.672805e-09,0.92364,3
404.098,36.33833,     11.92340, 61.04800,50.00000,48.00000,3.665560e-09,0.92350,3
410.078,36.63833,     12.00696, 55.60625,50.00000,48.00000,3.679128e-09,0.92335,3
416.032,36.93833,     12.06262, 49.84775,50.00000,48.00000,3.674103e-09,0.92320,3
421.972,37.23833,     12.06829, 43.74400,50.00000,48.00000,3.674286e-09,0.92305,3
427.911,37.53833,     12.03065, 37.67725,50.00000,48.00000,3.658861e-09,0.92289,3
433.849,37.83833,     11.94369, 31.70675,50.00000,48.00000,3.676230e-09,0.92281,3
439.781,38.13833,     11.79103, 26.23375,50.00000,48.00000,3.678530e-09,0.92265,3
445.703,38.43833,     11.57042, 21.45675,50.00000,48.00000,3.671007e-09,0.92248,3
451.631,38.73833,     11.28493, 17.72325,50.00000,48.00000,3.671131e-09,0.92231,3
457.551,39.03833,     10.95900, 14.93450,50.00000,48.00000,3.666887e-09,0.92214,3
463.471,39.33833,     10.62392, 13.30550,50.00000,48.00000,3.663212e-09,0.92205,3
469.385,39.63833,     10.33749, 12.58125,50.00000,48.00000,3.667341e-09,0.92188,3
475.312,39.93833,     10.11031, 12.44000,50.00000,48.00000,3.676284e-09,0.92175,3
[...]
540.437,43.23833,      8.81809, 12.67750,50.00000,48.00000,3.671260e-09,0.92054,3
546.38,43.53833,      8.69784, 12.71150,50.00000,48.00000,3.670234e-09,0.92044,3
552.319,43.83833,      8.57678, 12.71150,50.00000,48.00000,3.670596e-09,0.92034,3
558.282,44.13833,      8.45152, 12.74550,50.00000,48.00000,3.665981e-09,0.92026,3
564.239,44.43833,      8.32545, 12.81325,50.00000,48.00000,3.668877e-09,0.92022,3
570.21,44.73833,      8.18747, 12.79625,50.00000,48.00000,3.671729e-09,0.92014,3
576.191,45.03833,      8.04426, 12.86425,50.00000,48.00000,3.670586e-09,0.92006,3
582.153,45.33833,      7.90037, 12.89825,50.00000,48.00000,3.670163e-09,0.91999,3
588.138,45.63833,      7.75097, 12.90650,50.00000,48.00000,3.672619e-09,0.91992,3
594.119,45.93833,      7.59155, 12.94900,50.00000,48.00000,3.670548e-09,0.91988,4
600.093,46.23833,      7.41734, 12.96600,50.00000,48.00000,3.666365e-09,0.91982,4
606.058,46.53833,      7.24311, 12.97450,50.00000,48.00000,3.671717e-09,0.91975,4
612.042,46.83833,      7.08460, 13.03400,50.00000,48.00000,3.672250e-09,0.91969,4
618.043,47.13833,      6.91902, 13.00850,50.00000,48.00000,3.669171e-09,0.91963,4
624.046,47.43833,      6.73273, 13.04250,50.00000,48.00000,3.664830e-09,0.91957,4
630.039,47.73833,      6.53521, 13.04250,50.00000,48.00000,3.672701e-09,0.91954,4
636.045,48.03833,      6.33239, 13.11025,50.00000,48.00000,3.669354e-09,0.91949,4
642.045,48.33833,      6.11633, 13.12725,50.00000,48.00000,3.667239e-09,0.91943,4
648.041,48.63833,      5.90406, 13.16125,50.00000,48.00000,3.672969e-09,0.91938,4
654.065,48.93833,      5.67378, 13.16125,50.00000,48.00000,3.671636e-09,0.91933,4
660.08,49.23833,      5.43068, 13.16125,50.00000,48.00000,3.668329e-09,0.91929,4
666.092,49.53833,      5.17847, 13.19500,50.00000,48.00000,3.659309e-09,0.91927,4
672.104,49.83833,      4.91861, 13.23200,50.00000,48.00000,3.661654e-09,0.91922,4
678.128,50.13833,      4.64689, 13.23200,50.00000,48.00000,3.657241e-09,0.91918,4
684.139,50.43833,      4.35652, 13.23200,50.00000,48.00000,3.669799e-09,0.91914,4
690.164,50.73833,      4.06174, 13.25725,50.00000,48.00000,3.661889e-09,0.91910,4
696.185,51.03833,      3.75469, 13.26025,50.00000,49.00000,3.662376e-09,0.91909,4
702.215,51.33833,      3.43999, 13.36200,50.00000,49.00000,3.667288e-09,0.91905,4
708.253,51.63833,      3.12036, 13.31675,50.00000,48.00000,3.662161e-09,0.91902,4
714.283,51.93833,      2.78780, 13.38750,50.00000,49.00000,3.659634e-09,0.91900,4
720.328,52.23833,      2.43945, 13.38750,50.00000,49.00000,3.658439e-09,0.91897,4
726.374,52.53833,      2.08590, 13.39600,50.00000,49.00000,3.658938e-09,0.91895,4
732.411,52.83833,      1.72310, 13.42150,50.00000,49.00000,3.656093e-09,0.91893,4
738.437,53.13833,      1.35827, 13.42150,50.00000,49.00000,3.657296e-09,0.91892,4
744.489,53.43833,      0.99271, 13.45525,50.00000,49.00000,3.661853e-09,0.91890,4
750.536,53.73833,      0.62805, 13.45525,50.00000,49.00000,3.657332e-09,0.91889,4
756.567,54.03833,      0.26231, 13.48925,50.00000,49.00000,3.659932e-09,0.91888,4
762.606,54.33833,     -0.10449, 13.46950,50.00000,49.00000,3.657687e-09,0.91887,4
768.647,54.63833,     -0.46774, 13.48650,50.00000,49.00000,3.658218e-09,0.91886,4
774.671,54.93833,     -0.83112, 13.48650,50.00000,49.00000,3.656680e-09,0.91885,4
780.712,55.23833,     -1.18325, 13.51200,50.00000,49.00000,3.657136e-09,0.91885,4
786.762,55.53833,     -1.53452, 13.50350,50.00000,49.00000,3.656588e-09,0.91885,4
792.801,55.83833,     -1.89298, 13.55425,50.00000,49.00000,            ,0.44777,4
794.703,55.93333,     -2.00715, 13.52025,50.00000,49.00000,            ,0.44701,4