Folder: data-visualizer/data/TGA/ps_scf3_flynn_ozawa_wall/1K (part 5)

File: ExpDat_2025_11_14_SL_PS_Tosoh_A1000_5K_min.csv
#EXPORTTYPE:                 ,DATA ALL
#FILE:                       ,2025_11_14_SL_PS_Tosoh_A1000_5K_min.ngb-ss5
#FORMAT:                     ,NETZSCH5
#FTYPE:                      ,ASCII
#IDENTITY:                   ,PS_A1000
#DECIMAL:                    ,POINT
#SEPARATOR:                  ,COMMA
#MTYPE:                      ,DSC
#INSTRUMENT:                 ,NETZSCH STA 449F5
#PROJECT:                    ,PS
#DATE/TIME:                  ,11/14/2025 4:00:44 PM (UTC-5)
#CORR. FILE:                 ,
#TEMPCAL:                    ,05-05-2025 14:38
#SENSITIVITY:                ,28-06-2023 13:53
#LABORATORY:                 ,Tran/AAG
#OPERATOR:                   ,Stan
#REMARK:                     ,
#SAMPLE:                     ,PS_A1000
#SAMPLE MASS /mg:            ,4.3
#MATERIAL:                   ,
#REFERENCE:                  ,
#REFERENCE MASS /mg:         ,0
#TYPE OF CRUCIBLE:           ,Al2O3 85 �l, open
#SAMPLE CRUCIBLE MASS /mg:   ,0
#REFERENCE CRUCIBLE MASS /mg:,0
#DSC RANGE /�V:              ,5000
#TG RANGE /mg:               ,35000
#TAU-R:                      ,---
#CORR. CODE:                 ,000
#EXO:                        ,-1
#RANGE:                      ,100�C/5.0(K/min)/600�C
#SEGMENT:                    ,S3/4
#SEG. 3:                     ,100�C/5.0(K/min)/600�C

##Temp./�C,Time/min,DSC/(mW/mg),Mass/%,Gas Flow(purge2)/(ml/min),Gas Flow(protective)/(ml/min),TIC(scan:1)/A,Sensit./(uV/mW)
107.853, 21.01333,      0.16509,     87.10814,50.00000,52.00000,3.638016e-09,0.91892
108.002, 21.86667,      0.13999,     87.01605,50.00000,52.00000,3.635201e-09,0.91892
109.262, 22.72000,      0.54262,     87.42907,50.00000,52.00000,3.640603e-09,0.91892
111.238, 23.57333,      0.86771,     87.68953,50.00000,52.00000,3.634679e-09,0.91892
113.642, 24.42667,      1.09632,     87.87907,50.00000,52.00000,3.639588e-09,0.91893
116.598, 25.28000,      1.36242,     88.19465,50.00000,52.00000,3.636229e-09,0.91893
120.124, 26.13333,      1.63749,     88.50000,50.00000,52.00000,3.639478e-09,0.91892
124.106, 26.98667,      1.85862,     88.71302,50.00000,52.00000,3.641557e-09,0.91892
128.369, 27.84000,      2.03927,     88.92605,50.00000,52.00000,3.646933e-09,0.91892
132.889, 28.69333,      2.18422,     89.08395,50.00000,52.00000,3.636804e-09,0.91891
137.566, 29.54667,      2.29366,     89.17860,50.00000,52.00000,3.639564e-09,0.91891
142.325, 30.40000,      2.37107,     89.27349,50.00000,52.00000,3.645064e-09,0.91889
147.119, 31.25333,      2.41816,     89.31279,50.00000,52.00000,3.643916e-09,0.91889
151.901, 32.10667,      2.44944,     89.35233,50.00000,52.00000,3.641728e-09,0.91887
156.655, 32.96000,      2.46079,     89.43395,50.00000,52.00000,3.640133e-09,0.91885
161.326, 33.81333,      2.46285,     89.44186,50.00000,52.00000,3.643823e-09,0.91883
165.945, 34.66667,      2.45478,     89.47070,50.00000,52.00000,3.642204e-09,0.91880
170.49, 35.52000,      2.44640,     89.51814,50.00000,52.00000,3.642979e-09,0.91878
174.974, 36.37333,      2.43610,     89.48651,50.00000,52.00000,3.645678e-09,0.91875
179.407, 37.22667,      2.42527,     89.51814,50.00000,52.00000,3.654165e-09,0.91872
183.819, 38.08000,      2.42018,     89.51814,50.00000,52.00000,3.643124e-09,0.91868
188.195, 38.93333,      2.41561,     89.54977,50.00000,52.00000,3.641669e-09,0.91865
192.53, 39.78667,      2.40970,     89.51814,50.00000,52.00000,3.647561e-09,0.91862
196.856, 40.64000,      2.40556,     89.48907,50.00000,52.00000,3.640437e-09,0.91858
201.124, 41.49333,      2.40166,     89.45767,50.00000,52.00000,3.643679e-09,0.91854
205.414, 42.34667,      2.40265,     89.39186,50.00000,52.00000,3.644099e-09,0.91850
209.68, 43.20000,      2.40275,     89.39698,50.00000,52.00000,3.638389e-09,0.91845
213.916, 44.05333,      2.40315,     89.29977,50.00000,52.00000,3.641716e-09,0.91841
218.158, 44.90667,      2.40352,     89.20512,50.00000,52.00000,3.643110e-09,0.91836
222.415, 45.76000,      2.40636,     89.11302,50.00000,52.00000,3.640944e-09,0.91832
226.666, 46.61333,      2.41082,     88.95512,50.00000,52.00000,3.646834e-09,0.91827
230.902, 47.46667,      2.41794,     88.80512,50.00000,52.00000,3.637514e-09,0.91822
235.146, 48.32000,      2.42170,     88.63930,50.00000,52.00000,3.639889e-09,0.91817
239.386, 49.17333,      2.42730,     88.47628,50.00000,52.00000,3.646573e-09,0.91812
243.635, 50.02667,      2.43543,     88.26302,50.00000,52.00000,3.639459e-09,0.91807
247.89, 50.88000,      2.43590,     88.06581,50.00000,52.00000,3.635738e-09,0.91802
252.12, 51.73333,      2.43814,     87.80791,50.00000,52.00000,3.640522e-09,0.91797
256.379, 52.58667,      2.44338,     87.55000,50.00000,52.00000,3.643516e-09,0.91792
260.631, 53.44000,      2.44315,     87.23442,50.00000,52.00000,3.638997e-09,0.91786
264.877, 54.29333,      2.44366,     86.91860,50.00000,52.00000,3.640568e-09,0.91780
269.135, 55.14667,      2.44626,     86.55023,50.00000,52.00000,3.636034e-09,0.91775
273.385, 56.00000,      2.44503,     86.09256,50.00000,52.00000,3.644408e-09,0.91769
277.644, 56.85333,      2.44478,     85.70581,50.00000,52.00000,3.636185e-09,0.91764
281.898, 57.70667,      2.44393,     85.19535,50.00000,52.00000,3.646805e-09,0.91757
286.142, 58.56000,      2.44180,     84.68233,50.00000,52.00000,3.640154e-09,0.91751
290.401, 59.41333,      2.43441,     84.10884,50.00000,52.00000,3.640169e-09,0.91745
294.659, 60.26667,      2.42881,     83.52721,50.00000,52.00000,3.639317e-09,0.91739
298.901, 61.12000,      2.42429,     82.90907,50.00000,52.00000,3.638836e-09,0.91733
303.148, 61.97333,      2.41392,     82.25651,50.00000,52.00000,3.636636e-09,0.91726
307.408, 62.82667,      2.42991,     81.58302,50.00000,52.00000,3.641753e-09,0.91719
311.666, 63.68000,      2.47239,     80.88581,50.00000,52.00000,3.634191e-09,0.91711
315.928, 64.53333,      2.52111,     80.13326,50.00000,52.00000,3.636368e-09,0.91705
320.175, 65.38667,      2.64146,     79.36767,50.00000,52.00000,3.646786e-09,0.91698
324.418, 66.24000,      2.75243,     78.53628,50.00000,52.00000,3.641492e-09,0.91691
328.688, 67.09333,      2.78510,     77.63651,50.00000,52.00000,3.643061e-09,0.91682
332.948, 67.94667,      2.81670,     76.67349,50.00000,52.00000,3.636918e-09,0.91674
337.204, 68.80000,      2.86092,     75.63674,50.00000,52.00000,3.635948e-09,0.91667
341.444, 69.65333,      2.91032,     74.62651,50.00000,52.00000,3.643311e-09,0.91659
345.697, 70.50667,      2.97223,     73.54512,50.00000,52.00000,3.639935e-09,0.91652
349.96, 71.36000,      3.00633,     72.32698,50.00000,52.00000,3.644688e-09,0.91643
354.225, 72.21333,      3.04900,     71.05372,50.00000,52.00000,3.643587e-09,0.91634
358.477, 73.06667,      3.06978,     69.69349,50.00000,52.00000,3.642759e-09,0.91625
362.741, 73.92000,      3.08448,     68.14907,50.00000,52.00000,3.639717e-09,0.91617
367, 74.77333,      3.12284,     66.47302,50.00000,52.00000,3.639568e-09,0.91608
371.262, 75.62667,      3.16876,     64.55233,50.00000,52.00000,3.634059e-09,0.91599
375.521, 76.48000,      3.18415,     62.39233,50.00000,52.00000,3.634124e-09,0.91590
379.76, 77.33333,      3.16268,     59.87442,50.00000,52.00000,3.646021e-09,0.91579
384.027, 78.18667,      3.14330,     56.95395,50.00000,52.00000,3.631455e-09,0.91569
388.28, 79.04000,      3.19268,     53.64674,50.00000,52.00000,3.641015e-09,0.91560
[...]
422.361, 85.86667,      2.66668,     17.23349,50.00000,52.00000,3.643283e-09,0.91476
426.646, 86.72000,      2.34672,     12.37395,50.00000,52.00000,3.646239e-09,0.91466
430.902, 87.57333,      1.97670,      7.96442,50.00000,52.00000,3.633888e-09,0.91455
435.177, 88.42667,      1.61501,      4.26256,50.00000,52.00000,3.638873e-09,0.91444
439.431, 89.28000,      1.30848,      1.22372,50.00000,52.00000,3.637654e-09,0.91431
443.716, 90.13333,      1.09052,     -1.05744,50.00000,52.00000,3.642487e-09,0.91419
447.982, 90.98667,      0.90058,     -2.82814,50.00000,52.00000,3.648097e-09,0.91407
452.256, 91.84000,      0.73179,     -4.03581,50.00000,52.00000,3.645849e-09,0.91396
456.517, 92.69333,      0.59308,     -4.81442,50.00000,52.00000,3.641931e-09,0.91385
460.787, 93.54667,      0.48444,     -5.30395,50.00000,52.00000,3.639660e-09,0.91370
465.052, 94.40000,      0.38908,     -5.55907,50.00000,52.00000,3.646621e-09,0.91358
469.319, 95.25333,      0.31708,     -5.68535,50.00000,52.00000,3.641646e-09,0.91346
473.581, 96.10667,      0.25215,     -5.82744,50.00000,52.00000,3.643145e-09,0.91333
477.85, 96.96000,      0.18023,     -5.93791,50.00000,52.00000,3.642074e-09,0.91321
482.1, 97.81333,      0.11034,     -5.95372,50.00000,52.00000,3.641748e-09,0.91306
486.347, 98.66667, 4.282922e-02,     -6.04837,50.00000,52.00000,3.639216e-09,0.91293
490.634, 99.52000,-2.630356e-02,     -6.08000,50.00000,52.00000,3.642743e-09,0.91280
494.899,100.373,     -0.11074,     -6.11163,50.00000,52.00000,3.642150e-09,0.91267
499.162,101.227,     -0.18675,     -6.12744,50.00000,52.00000,3.635972e-09,0.91254
503.428,102.08,     -0.26505,     -6.09581,50.00000,52.00000,3.642792e-09,0.91239
507.704,102.933,     -0.34126,     -6.08000,50.00000,52.00000,3.641684e-09,0.91225
511.963,103.787,     -0.42569,     -6.06419,50.00000,52.00000,3.644921e-09,0.91212
516.233,104.64,     -0.50624,     -6.03256,50.00000,52.00000,3.641370e-09,0.91199
520.514,105.493,     -0.58734,     -6.03256,50.00000,52.00000,3.640611e-09,0.91185
524.777,106.347,     -0.66745,     -6.00116,50.00000,52.00000,3.641272e-09,0.91171
529.049,107.2,     -0.74991,     -5.96953,50.00000,52.00000,3.636787e-09,0.91157
533.321,108.053,     -0.82953,     -5.96953,50.00000,52.00000,3.638783e-09,0.91140
537.582,108.907,     -0.90411,     -5.93000,50.00000,52.00000,3.638995e-09,0.91126
541.858,109.76,     -0.98127,     -5.91953,50.00000,52.00000,3.645058e-09,0.91111
546.13,110.613,     -1.05174,     -5.88791,50.00000,52.00000,3.644656e-09,0.91098
550.418,111.467,     -1.12664,     -5.89581,50.00000,52.00000,3.639016e-09,0.91082
554.697,112.32,     -1.19878,     -5.86419,50.00000,52.00000,3.633096e-09,0.91068
558.972,113.173,     -1.26812,     -5.83279,50.00000,52.00000,3.636804e-09,0.91050
563.237,114.027,     -1.33648,     -5.84860,50.00000,52.00000,3.638516e-09,0.91035
567.508,114.88,     -1.39878,     -5.81698,50.00000,52.00000,3.640632e-09,0.91020
571.786,115.733,     -1.46387,     -5.80116,50.00000,52.00000,3.637387e-09,0.91005
576.075,116.587,     -1.51702,     -5.82488,50.00000,52.00000,3.637798e-09,0.90990
580.351,117.44,     -1.58250,     -5.76953,50.00000,52.00000,3.638578e-09,0.90974
584.622,118.293,     -1.63783,     -5.78535,50.00000,52.00000,3.644643e-09,0.90959
588.917,119.147,     -1.69168,     -5.78535,50.00000,52.00000,3.646997e-09,0.90940
593.188,120,     -1.75506,     -5.78535,50.00000,52.00000,3.639292e-09,0.90925
597.465,120.853,     -1.80843,     -5.77744,50.00000,52.00000,3.634371e-09,0.90910
598.191,121,     -1.81613,     -5.74581,50.00000,52.00000,3.643887e-09,0.90906