Folder: data-visualizer/results/TGA/005d-L_M

File: PS-10K_PS-10K-SCF$_{3}$_isothermal_rate_comparison.csv
mass_pct,mass_loss_pct,PS-10K_time_min,PS-10K-SCF$_{3}$_time_min,PS-10K-SCF$_{3}$_vs_PS-10K_rate_factor
90,10,253.799,96.8,2.62189
80,20,806.899,259.3,3.11184
70,30,1203.06,447.4,2.689
60,40,1203.71,656.6,1.83325
50,50,1204.08,897.8,1.34114
40,60,1204.36,1187.5,1.0142
30,70,1204.62,1203.825,1.00066
20,80,1204.89,1204.525,1.00031