Folder: data-visualizer/data/TGA/005d-L_M (part 4)

File: F2_000002 -temp_104 AMU_XIC
Time	Ion Current
min	mA
0.00	1.00000e-13
4.53	1.00000e-13
9.05	1.00000e-13
13.58	1.00000e-13
18.10	1.55244e-5
22.63	1.00000e-13
27.16	1.00000e-13
31.69	1.00000e-13
36.21	1.00000e-13
40.74	1.00000e-13
45.27	1.00000e-13
49.79	1.00000e-13
54.32	1.00000e-13
58.84	1.00000e-13
63.37	1.00000e-13
67.89	1.00000e-13
72.42	1.00000e-13
76.95	3.17439e-5
81.48	1.40183e-5
86.00	1.00000e-13
90.53	1.00000e-13
95.05	1.00000e-13
99.58	1.00000e-13
104.10	2.31707e-7
108.63	1.00000e-13
113.16	1.00000e-13
117.69	1.00000e-13
122.21	1.00000e-13
126.74	1.00000e-13
131.26	1.00000e-13
135.79	1.00000e-13
140.32	1.00000e-13
144.84	1.00000e-13
149.37	1.00000e-13
153.89	2.05061e-5
158.42	1.00000e-13
162.95	1.00000e-13
167.47	1.00000e-13
172.00	4.63414e-6
176.53	1.00000e-13
181.05	1.73780e-6
185.58	1.00000e-13
190.11	1.00000e-13
194.63	1.00000e-13
199.16	1.00000e-13
203.68	1.00000e-13
208.21	1.00000e-13
212.73	1.00000e-13
217.26	1.00000e-13
221.79	3.02378e-5
226.32	1.00000e-13
230.84	3.93902e-6
235.37	1.00000e-13
239.90	1.00000e-13
244.42	1.00000e-13
248.94	1.00000e-13
253.47	1.00000e-13
258.00	1.00000e-13
262.52	1.00000e-13
267.05	1.00000e-13
271.58	1.00000e-13
276.11	1.00000e-13
280.63	1.00000e-13
285.15	1.00000e-13
289.68	1.00000e-13
294.21	1.00000e-13
298.73	1.00000e-13
303.26	1.00000e-13
307.79	1.00000e-13
312.31	1.00000e-13
316.84	1.00000e-13
321.36	2.54878e-6
325.89	1.00000e-13
330.42	1.00000e-13
334.94	1.00000e-13
339.47	1.00000e-13
344.00	1.00000e-13
348.52	1.00000e-13
353.05	1.00000e-13
357.57	1.00000e-13
362.10	1.40183e-5
366.63	4.74999e-6
371.15	1.00000e-13
375.68	1.00000e-13
380.21	1.00000e-13
384.74	1.00000e-13
389.26	1.00000e-13
393.79	1.00000e-13
398.31	1.00000e-13
402.84	1.00000e-13
407.36	1.00000e-13
411.89	1.00000e-13
416.42	1.00000e-13
420.94	1.00000e-13
425.47	1.00000e-13
429.99	1.00000e-13
434.52	1.00000e-13
439.05	1.00000e-13
443.57	1.00000e-13
448.10	1.00000e-13
452.63	1.00000e-13
457.16	5.44511e-6
461.68	1.00000e-13
466.21	1.00000e-13
470.73	1.00000e-13
475.26	1.00000e-13
479.79	1.00000e-13
484.31	1.00000e-13
488.84	1.00000e-13
493.36	1.00000e-13
497.89	1.00000e-13
502.42	1.00000e-13
506.94	1.00000e-13
511.47	1.00000e-13
515.99	1.00000e-13
520.52	1.00000e-13
525.05	1.00000e-13
529.57	1.00000e-13
534.10	1.00000e-13
538.63	1.00000e-13
543.15	1.00000e-13
547.68	1.00000e-13
552.21	1.00000e-13
556.73	1.00000e-13
561.26	1.00000e-13
565.78	1.00000e-13
570.31	1.00000e-13
574.83	1.00000e-13
579.36	1.00000e-13
583.89	1.00000e-13
588.42	1.00000e-13
592.94	1.00000e-13
597.47	1.00000e-13
602.00	1.00000e-13
606.52	1.00000e-13
611.05	1.00000e-13
615.57	1.00000e-13
620.10	1.00000e-13
624.63	1.00000e-13
629.15	1.00000e-13
633.68	1.00000e-13
638.21	1.00000e-13
642.73	1.00000e-13
647.26	1.00000e-13
651.78	1.00000e-13
656.31	1.00000e-13
660.83	1.00000e-13
665.36	1.00000e-13
669.89	1.00000e-13
674.42	1.00000e-13
678.94	1.00000e-13
683.47	1.00000e-13
687.99	1.00000e-13
692.52	1.00000e-13
697.04	1.00000e-13
701.57	1.00000e-13
706.10	1.00000e-13
710.62	1.00000e-13
715.15	1.00000e-13
719.68	1.00000e-13
724.20	1.00000e-13
728.73	1.00000e-13
733.26	1.00000e-13
737.78	1.00000e-13
742.31	1.00000e-13
746.83	1.00000e-13
751.36	1.00000e-13
755.89	1.00000e-13
760.41	1.00000e-13
764.94	1.00000e-13
769.46	1.00000e-13
773.99	1.00000e-13
778.52	1.00000e-13
783.05	1.00000e-13
787.57	3.47560e-7
792.10	1.00000e-13
796.62	1.00000e-13
801.15	1.00000e-13
805.67	1.00000e-13
810.20	1.00000e-13
814.73	1.00000e-13
819.25	1.00000e-13
823.78	1.00000e-13
828.30	1.00000e-13
832.83	1.00000e-13
837.36	1.00000e-13
841.89	1.00000e-13
846.41	1.00000e-13
850.94	1.00000e-13
855.46	1.00000e-13
859.99	1.00000e-13
864.52	1.00000e-13
869.04	1.00000e-13
873.57	1.00000e-13
878.10	1.00000e-13
882.62	1.00000e-13
887.15	1.00000e-13
891.68	1.00000e-13
896.20	1.00000e-13
900.73	1.00000e-13
905.25	1.00000e-13
909.78	9.03657e-6
914.30	1.00000e-13
918.83	1.00000e-13
923.36	1.00000e-13
927.88	1.00000e-13
932.41	1.00000e-13
936.94	1.00000e-13
941.46	1.00000e-13
945.99	1.00000e-13
950.51	1.00000e-13
955.04	1.00000e-13
959.57	1.00000e-13
964.10	1.00000e-13
968.62	1.00000e-13
973.15	1.00000e-13
977.67	1.00000e-13
982.20	2.68780e-5
986.72	1.00000e-13
991.25	1.00000e-13
995.78	1.00000e-13
1000.30	1.00000e-13
1004.83	1.00000e-13
1009.35	1.00000e-13
1013.88	1.00000e-13
1018.41	1.00000e-13
1022.94	1.00000e-13
1027.46	1.00000e-13
1031.99	1.00000e-13
1036.51	1.00000e-13
1041.04	1.00000e-13
1045.57	1.00000e-13
1050.09	1.00000e-13
1054.62	1.00000e-13
1059.14	1.00000e-13
1063.67	1.00000e-13
1068.20	1.00000e-13
1072.72	1.00000e-13
1077.25	1.00000e-13
1081.78	1.00000e-13
1086.30	1.00000e-13
1090.83	1.00000e-13
1095.36	1.00000e-13
1099.88	1.00000e-13
1104.41	1.00000e-13
1108.93	1.00000e-13
1113.46	1.00000e-13
1117.98	1.00000e-13
1122.51	1.00000e-13
1127.04	1.00000e-13
1131.57	1.00000e-13
1136.09	1.00000e-13
1140.62	1.00000e-13
1145.14	1.00000e-13
1149.67	1.00000e-13
1154.20	1.00000e-13
1158.72	1.00000e-13
1163.25	1.00000e-13
1167.77	1.00000e-13
1172.30	1.00000e-13
1176.83	1.00000e-13
1181.35	1.00000e-13
1185.88	1.00000e-13
1190.41	1.00000e-13
1194.93	1.00000e-13
1199.46	1.00000e-13
1203.98	1.00000e-13
1208.51	1.00000e-13
1213.03	1.00000e-13
1217.56	1.00000e-13
1222.09	1.00000e-13
1226.61	1.00000e-13
1231.14	1.00000e-13
1235.67	1.00000e-13
1240.20	8.68901e-6
1244.72	1.00000e-13
1249.25	1.00000e-13
1253.77	1.00000e-13
1258.30	2.20122e-5
1262.83	1.00000e-13
1267.35	1.00000e-13
1271.88	9.70852e-5
1276.41	4.26827e-3
1280.93	0.0168611
1285.46	8.94621e-4
1289.98	6.39511e-5
1294.51	8.10974e-6
1299.03	1.00000e-13
1303.56	1.00000e-13
1308.09	1.00000e-13
1312.61	1.12378e-5
1314.23	1.00000e-13

File: F4.txt
Filename	F4
Instrument name
Operator	Gwenael
rundate	2025-02-10
Sample name	F4
[step]
Step 1
Time	Temperature	Weight	Weight	Deriv. Weight
min	°C	mg	%	% / °C
0,02	26,46	2,685	100,023	6,99510e-4
4,71	40,97	2,691	100,258	-9,10043e-4
9,46	64,08	2,689	100,197	-2,75037e-3
14,21	87,51	2,688	100,141	-7,13129e-3
18,96	103,01	2,682	99,910	-0,0149137
23,71	100,64	2,677	99,731	-7,37346e-3
28,46	110,08	2,677	99,725	-1,69156e-3
33,21	132,85	2,675	99,681	-1,39950e-3
37,96	156,72	2,675	99,663	-1,53186e-3
42,71	180,60	2,674	99,619	-1,68581e-3
47,46	204,36	2,673	99,580	-1,73677e-3
52,21	228,13	2,671	99,528	-1,70980e-3
56,96	251,92	2,670	99,493	-2,58259e-3
61,71	275,72	2,669	99,442	-6,46573e-3
66,46	298,48	2,663	99,205	-0,0146805
71,21	301,45	2,655	98,920	-0,0345665
75,96	299,67	2,648	98,666	0,257392
80,71	300,00	2,642	98,421	-0,0230716
85,46	300,04	2,635	98,170	-1,21563
90,21	299,99	2,628	97,927	6,21778
94,96	300,00	2,621	97,668	-17,8093
99,71	300,00	2,614	97,398	-19,7320
104,46	300,00	2,607	97,150	76,2559
109,21	300,00	2,601	96,900	15,7943
113,96	300,00	2,594	96,643	-36,5102
118,71	300,00	2,587	96,397	-47,4733
123,46	300,00	2,580	96,134	43,5656
128,21	300,00	2,574	95,893	28,0911
132,96	300,00	2,567	95,646	-43,0736
137,71	300,00	2,561	95,399	-53,4526
142,46	300,00	2,554	95,151	2,34544
147,21	300,00	2,548	94,925	34,7077
151,96	300,00	2,541	94,686	77,6801
156,71	300,00	2,535	94,458	17,5229
161,46	300,00	2,529	94,223	-18,1698
166,21	300,00	2,523	94,002	-52,7238
170,96	300,00	2,516	93,747	-48,6507
175,71	300,00	2,511	93,551	-12,9371
180,46	300,00	2,505	93,333	23,1248
185,21	300,00	2,499	93,125	18,9244
189,96	300,00	2,493	92,897	-46,3355
194,71	300,00	2,488	92,708	-4,47989
199,46	300,00	2,483	92,501	66,8609
204,21	300,00	2,477	92,296	110,405
208,96	300,00	2,472	92,091	-44,0006
213,71	300,00	2,467	91,915	-28,6035
218,46	300,00	2,461	91,702	-34,4781
223,21	300,00	2,457	91,525	-22,2323
227,96	300,00	2,451	91,333	-68,2904
232,71	300,00	2,447	91,159	-46,8510
237,46	300,00	2,442	90,968	-63,3253
242,21	300,00	2,437	90,803	-10,1678
246,96	300,00	2,433	90,635	60,4935
251,71	300,00	2,428	90,467	26,4157
256,46	300,00	2,425	90,338	-54,7166
261,21	300,00	2,421	90,183	-42,9331
265,96	300,00	2,417	90,044	44,2701
270,71	300,00	2,413	89,910	42,6674
275,46	300,00	2,409	89,772	-15,1156
280,21	300,00	2,406	89,628	46,2924
284,96	300,00	2,402	89,493	57,4195
289,71	300,00	2,398	89,360	2,99420
294,46	300,00	2,395	89,226	-49,0292
299,21	300,00	2,391	89,082	-19,3169
303,96	300,00	2,387	88,945	15,9481
308,71	300,00	2,384	88,816	-38,3707
313,46	300,00	2,380	88,680	3,49470
318,21	300,00	2,377	88,574	22,2632
322,96	300,00	2,374	88,456	22,2304
327,71	300,00	2,371	88,334	-31,8001
332,46	300,00	2,368	88,215	-11,6365
337,21	300,00	2,364	88,067	4,81671
341,96	300,00	2,361	87,960	-1,99619
346,71	300,00	2,358	87,840	-17,8584
351,46	300,00	2,355	87,728	19,8566
356,21	300,00	2,351	87,596	31,4540
360,96	300,00	2,348	87,497	-9,77780
365,71	300,00	2,345	87,370	-43,0497
370,46	300,00	2,341	87,227	-31,8407
375,21	300,00	2,339	87,128	47,0484
379,96	300,00	2,336	87,020	21,2955
384,71	300,00	2,333	86,917	30,7572
389,46	300,00	2,330	86,811	-19,2564
394,21	300,00	2,327	86,706	-13,3981
398,96	300,00	2,324	86,588	-15,1201
403,71	300,00	2,321	86,488	-24,0778
408,46	300,00	2,318	86,370	-15,7322
413,21	300,00	2,316	86,284	33,0833
417,96	300,00	2,313	86,161	18,6001
422,71	300,00	2,310	86,075	-19,3849
427,46	300,00	2,308	85,987	-34,2691
432,21	300,00	2,305	85,877	6,37185
436,96	300,00	2,302	85,770	26,2859
441,71	300,00	2,299	85,653	32,4714
446,46	300,00	2,296	85,559	-1,04873
451,21	300,00	2,294	85,461	4,45053
455,96	300,00	2,291	85,373	-6,80058
460,71	300,00	2,288	85,245	-10,1702
465,46	300,00	2,285	85,151	-17,5791
470,21	300,00	2,283	85,055	0,579671
474,96	300,00	2,280	84,962	-11,3190
479,71	300,00	2,278	84,866	20,1243
484,46	300,00	2,274	84,739	28,7148
489,21	300,00	2,272	84,654	-19,0481
493,96	300,00	2,270	84,557	-32,1758
498,71	300,00	2,267	84,466	7,54588
503,46	300,00	2,265	84,372	-10,3316
508,21	300,00	2,263	84,297	23,1102
512,96	300,00	2,259	84,183	-27,9782
517,71	300,00	2,257	84,084	-4,85712
522,46	300,00	2,254	83,988	15,5770
527,21	300,00	2,252	83,899	35,0043
531,96	300,00	2,249	83,788	40,1336
536,71	300,00	2,247	83,701	38,8942
541,46	300,00	2,244	83,605	-42,0597
546,21	300,00	2,241	83,502	-52,8905
550,96	300,00	2,239	83,420	-25,8543
555,71	300,00	2,236	83,298	31,0221
560,46	300,00	2,234	83,219	48,4902
565,21	300,00	2,231	83,121	40,1901
569,96	300,00	2,228	83,026	4,65267
574,71	300,00	2,226	82,926	-49,7173
579,46	300,00	2,223	82,825	-11,9023
584,21	300,00	2,221	82,744	-45,0557
588,96	300,00	2,218	82,645	-30,8229
593,71	300,00	2,216	82,554	43,8529
598,46	300,00	2,213	82,455	30,2776
603,21	300,00	2,211	82,365	-9,31512
607,96	300,00	2,209	82,289	31,4078
612,71	300,00	2,206	82,195	27,5217
617,46	300,00	2,203	82,094	-1,72964
622,21	300,00	2,201	81,996	-65,8802
626,96	300,00	2,198	81,885	-50,8893
631,71	300,00	2,196	81,817	-14,6444
636,46	300,00	2,193	81,711	44,0436
641,21	300,00	2,191	81,631	-7,30594
645,96	300,00	2,189	81,552	-11,5120
650,71	300,00	2,186	81,445	31,0539
655,46	300,00	2,184	81,372	-3,12692
660,21	300,00	2,182	81,282	-42,6692
664,96	300,00	2,179	81,198	-21,4436
669,71	300,00	2,177	81,109	21,0253
674,46	300,00	2,175	81,040	17,8835
679,21	300,00	2,173	80,943	3,04882
683,96	300,00	2,171	80,883	30,8161
688,71	300,00	2,169	80,803	19,3059
693,46	300,00	2,167	80,727	-3,75212
698,21	300,00	2,165	80,646	-24,7125
702,96	300,00	2,162	80,541	-40,1890
707,71	300,00	2,160	80,473	-10,5971
712,46	300,00	2,158	80,396	17,9171
717,21	300,00	2,155	80,309	9,47135
721,96	300,00	2,154	80,237	-52,1525
726,71	300,00	2,151	80,154	3,61115
731,46	300,00	2,150	80,089	22,9931
736,21	300,00	2,148	80,020	6,94276
740,96	300,00	2,146	79,943	16,0094
745,71	300,00	2,143	79,860	15,7950
750,46	300,00	2,142	79,797	-16,0625
755,21	300,00	2,140	79,716	-34,3236
759,96	300,00	2,137	79,630	-7,08693
764,71	300,00	2,135	79,558	15,2049
769,46	300,00	2,133	79,482	2,35750
774,21	300,00	2,131	79,392	15,8607
778,96	300,00	2,129	79,314	28,4219
783,71	300,00	2,127	79,260	30,1188
788,46	300,00	2,125	79,177	-38,9393
793,21	300,00	2,123	79,095	-46,3612
797,96	300,00	2,121	79,034	-29,2782
802,71	300,00	2,119	78,948	6,44786
807,46	300,00	2,117	78,861	23,2730
812,21	300,00	2,114	78,777	23,7663
816,96	300,00	2,112	78,704	-24,8972
821,71	300,00	2,110	78,614	9,68780
826,46	300,00	2,108	78,547	-4,07421
831,21	300,00	2,106	78,462	-24,9343
835,96	300,00	2,104	78,376	-34,0178
840,71	300,00	2,102	78,311	29,3860
845,46	300,00	2,100	78,223	47,7213
850,21	300,00	2,097	78,146	14,1117
854,96	300,00	2,096	78,081	-8,19357
859,71	300,00	2,093	77,996	1,43243
864,46	300,00	2,092	77,925	17,6678
869,21	300,00	2,090	77,854	-26,5878
873,96	300,00	2,087	77,761	-15,7256
878,71	300,00	2,086	77,702	-12,3941
883,46	300,00	2,084	77,639	23,3631
888,21	300,00	2,082	77,564	34,2913
892,96	300,00	2,080	77,494	21,3866
897,71	300,00	2,078	77,415	-14,3940
902,46	300,00	2,076	77,345	-23,2569
907,21	300,00	2,074	77,265	10,5524
911,96	300,00	2,072	77,196	-6,92731
916,71	300,00	2,070	77,119	-8,22538
921,46	300,00	2,068	77,035	-8,80193
926,21	300,00	2,066	76,973	-12,8608
930,96	300,00	2,064	76,893	-7,00160
935,71	300,00	2,062	76,814	4,45390
940,46	300,00	2,060	76,749	13,3930
945,21	300,00	2,058	76,671	13,0177
949,96	300,00	2,056	76,597	32,1926
954,71	300,00	2,054	76,528	-3,72951
959,46	300,00	2,052	76,455	5,81472
964,21	300,00	2,050	76,379	14,1217
968,96	300,00	2,048	76,317	-36,0064
973,71	300,00	2,046	76,244	-24,1156
978,46	300,00	2,044	76,171	3,83776
983,21	300,00	2,042	76,087	1,92666
987,96	300,00	2,040	76,011	-16,8332
992,71	300,00	2,038	75,932	25,5088
997,46	300,00	2,036	75,852	37,1113
1002,21	300,00	2,034	75,787	-9,52356
1006,96	300,00	2,033	75,733	-35,3194
1011,71	300,00	2,030	75,649	-21,9011
1016,46	300,00	2,029	75,594	-21,4852
1021,21	300,00	2,027	75,512	-23,9020
1025,96	300,00	2,024	75,428	4,81043
1030,71	300,00	2,023	75,357	25,2315
1035,46	300,00	2,021	75,297	6,85333
1040,21	300,00	2,019	75,211	9,69530
1044,96	300,00	2,017	75,147	-7,40963
1049,71	300,00	2,015	75,081	13,2746
1054,46	300,00	2,013	75,011	4,38092
1059,21	300,00	2,011	74,943	-20,3866
1063,96	300,00	2,009	74,868	-28,1104
1068,71	300,00	2,008	74,801	9,76432
1073,46	300,00	2,005	74,714	17,5346
1078,21	300,00	2,003	74,641	-11,2754
1082,96	300,00	2,002	74,574	-27,7246
1087,71	300,00	2,000	74,501	-12,6208
1092,46	300,00	1,998	74,423	33,7630
1097,21	300,00	1,996	74,374	17,5169
1101,96	300,00	1,994	74,300	13,8058
1106,71	300,00	1,992	74,227	-5,46688
1111,46	300,00	1,991	74,166	24,9801
1116,21	300,00	1,989	74,095	16,3920
1120,96	300,00	1,987	74,032	-24,3672
1125,71	300,00	1,985	73,952	-21,0756
1130,46	300,00	1,983	73,878	17,7951
1135,21	300,00	1,981	73,803	22,2851
1139,96	300,00	1,979	73,749	-0,0961696
1144,71	300,00	1,977	73,670	-0,260778
1149,46	300,00	1,975	73,600	16,4404
1154,21	300,00	1,974	73,532	-9,90583
1158,96	300,00	1,972	73,468	12,3613
1163,71	300,00	1,970	73,399	10,5376
1168,46	300,00	1,968	73,329	-23,2247
1173,21	300,00	1,967	73,274	22,5522
1177,96	300,00	1,965	73,195	24,6369
1182,71	300,00	1,963	73,130	1,14372
1187,46	300,00	1,961	73,060	-44,9284
1192,21	300,00	1,959	72,996	6,34034
1196,96	300,00	1,957	72,914	22,7135
1201,71	300,00	1,955	72,854	7,36362
1206,46	300,00	1,954	72,789	-3,44630
1211,21	300,00	1,952	72,728	6,86682
1215,96	300,00	1,949	72,623	11,3230
1220,71	299,99	1,948	72,580	11,0482
1225,46	300,00	1,946	72,513	-32,7369
1230,21	300,00	1,944	72,424	-34,3904
1234,96	300,00	1,942	72,350	-12,2223
1239,71	300,00	1,940	72,282	13,5270
1244,46	300,00	1,938	72,211	-6,41633
1249,21	300,00	1,936	72,136	2,31780
1253,96	300,00	1,934	72,073	31,0652
1258,71	300,00	1,932	71,997	-0,0104653
1263,46	300,00	1,931	71,932	-0,0118376
1268,21	322,72	1,929	71,872	-0,0880153
1272,96	369,18	1,873	69,782	-0,441050
1277,71	417,33	1,013	37,736	-0,617812
1282,46	464,94	-0,036	-1,355	-0,413561
1287,21	512,61	-0,052	-1,941	-0,0354818
1291,96	560,23	-0,052	-1,944	5,03254e-5
1296,71	607,83	-0,052	-1,926	6,88014e-4
1301,46	655,42	-0,050	-1,868	1,12503e-3
1306,21	702,99	-0,048	-1,804	1,42226e-3
1310,96	750,57	-0,046	-1,727	1,56645e-3
1314,54	786,44	-0,045	-1,672	1,59948e-3

File: F4_000002 -temp_104 AMU_XIC
Time	Ion Current
min	mA
0.00	1.91158e-5
4.53	1.00000e-13
9.05	1.00000e-13
13.58	1.00000e-13
18.11	1.00000e-13
22.63	1.00000e-13
27.16	1.00000e-13
31.68	1.00000e-13
36.21	1.00000e-13
40.74	1.00000e-13
45.26	1.00000e-13
49.79	1.00000e-13
54.32	1.00000e-13
58.84	1.00000e-13
63.37	1.00000e-13
67.89	1.00000e-13
72.42	1.00000e-13
76.94	5.32926e-6
81.47	1.00000e-13
86.00	1.00000e-13
90.52	1.00000e-13
95.05	1.00000e-13
99.58	8.22560e-6
104.10	1.00000e-13
108.63	1.28597e-5
113.15	1.00000e-13
117.68	1.00000e-13
122.21	1.00000e-13
126.73	2.13170e-5
131.26	1.00000e-13
135.78	1.00000e-13
140.31	1.00000e-13
144.84	1.00000e-13
149.36	1.62195e-6
153.89	1.00000e-13
158.42	1.15853e-7
162.94	1.00000e-13
167.47	1.00000e-13
172.00	1.00000e-13
176.52	2.07378e-5
181.05	1.00000e-13
185.57	8.10974e-7
190.10	1.00000e-13
194.62	1.00000e-13
199.15	5.56097e-6
203.68	4.34451e-5
208.20	1.00000e-13
212.73	1.00000e-13
217.26	1.80731e-5
221.78	1.00000e-13
226.31	1.00000e-13
230.84	1.00000e-13
235.36	1.51768e-5
239.89	1.00000e-13
244.41	1.00000e-13
248.94	1.00000e-13
253.47	1.00000e-13
257.99	1.00000e-13
262.52	1.00000e-13
267.05	1.00000e-13
271.57	1.00000e-13
276.10	1.00000e-13
280.63	1.00000e-13
285.15	1.00000e-13
289.67	2.54878e-6
294.20	1.00000e-13
298.73	1.00000e-13
303.26	1.00000e-13
307.78	1.00000e-13
312.31	1.00000e-13
316.83	1.00000e-13
321.36	1.00000e-13
325.88	1.00000e-13
330.41	1.00000e-13
334.94	1.00000e-13
339.47	1.27439e-5
344.00	1.00000e-13
348.52	1.00000e-13
353.04	1.00000e-13
357.57	1.00000e-13
362.09	1.00000e-13
366.62	1.00000e-13
371.15	1.00000e-13
375.67	1.00000e-13
380.20	1.00000e-13
384.73	1.00000e-13
389.25	1.00000e-13
393.78	1.00000e-13
398.30	1.00000e-13
402.83	1.00000e-13
407.36	1.00000e-13
411.89	1.00000e-13
416.41	1.00000e-13
420.94	1.00000e-13
425.47	1.00000e-13
429.99	1.00000e-13
434.52	1.00000e-13
439.04	1.00000e-13
443.57	1.00000e-13
448.09	1.00000e-13
452.62	1.56402e-5
457.15	1.00000e-13
461.67	1.00000e-13
466.20	1.00000e-13
470.72	1.00000e-13
475.25	1.00000e-13
479.77	1.00000e-13
484.30	1.00000e-13
488.83	1.00000e-13
493.36	1.00000e-13
497.88	1.00000e-13
502.41	1.00000e-13
506.94	1.00000e-13
511.47	1.00000e-13
515.99	1.00000e-13
520.52	1.36707e-5
525.04	1.00000e-13
529.56	1.12378e-5
534.09	1.00000e-13
538.62	1.00000e-13
543.14	1.00000e-13
547.67	1.00000e-13
552.20	1.00000e-13
556.72	1.00000e-13
561.25	1.00000e-13
565.78	1.00000e-13
570.30	1.00000e-13
574.83	1.00000e-13
579.35	1.00000e-13
583.88	1.00000e-13
588.41	1.00000e-13
592.94	1.00000e-13
597.46	1.00000e-13
601.99	1.00000e-13
606.52	1.00000e-13
611.05	1.00000e-13
615.56	1.00000e-13
620.09	1.00000e-13
624.62	1.00000e-13
629.14	2.03902e-5
633.67	1.00000e-13
638.19	1.00000e-13
642.72	1.00000e-13
647.25	1.00000e-13
651.77	1.00000e-13
656.30	1.00000e-13
660.82	1.00000e-13
665.35	1.00000e-13
669.88	1.00000e-13
674.41	1.00000e-13
678.93	1.00000e-13
683.46	1.00000e-13
687.99	4.28658e-6
692.52	1.00000e-13
697.05	1.00000e-13
701.56	1.00000e-13
706.09	1.00000e-13
710.61	1.00000e-13
715.14	1.06585e-5
719.67	1.00000e-13
724.19	1.00000e-13
728.72	1.00000e-13
733.25	1.00000e-13
737.77	1.00000e-13
742.30	1.00000e-13
746.82	1.00000e-13
751.35	1.00000e-13
755.88	1.00000e-13
760.40	1.00000e-13
764.93	1.00000e-13
769.46	1.00000e-13
773.99	1.00000e-13
778.52	1.00000e-13
783.04	1.00000e-13
787.56	1.00000e-13
792.08	1.00000e-13
796.61	1.00000e-13
801.14	1.00000e-13
805.66	1.00000e-13
810.19	1.00000e-13
814.72	1.00000e-13
819.24	9.26828e-7
823.77	1.00000e-13
828.29	1.00000e-13
832.82	1.00000e-13
837.35	1.00000e-13
841.88	1.00000e-13
846.40	1.00000e-13
850.93	1.00000e-13
855.46	1.00000e-13
859.99	1.00000e-13
864.51	1.00000e-13
869.05	1.00000e-13
873.57	1.00000e-13
878.08	1.00000e-13
882.61	1.00000e-13
887.14	1.00000e-13
891.66	1.00000e-13
896.19	1.00000e-13
900.71	1.00000e-13
905.24	1.00000e-13
909.77	1.00000e-13
914.29	1.00000e-13
918.82	1.00000e-13
923.34	1.00000e-13
927.87	1.00000e-13
932.40	1.00000e-13
936.93	1.00000e-13
941.46	1.00000e-13
945.98	1.00000e-13
950.51	1.00000e-13
955.04	1.00000e-13
959.57	1.00000e-13
964.08	1.00000e-13
968.61	1.00000e-13
973.13	1.00000e-13
977.66	1.00000e-13
982.18	1.00000e-13
986.71	1.00000e-13
991.24	1.00000e-13
995.76	1.00000e-13
1000.29	1.00000e-13
1004.82	1.00000e-13
1009.34	1.00000e-13
1013.87	1.00000e-13
1018.40	1.00000e-13
1022.93	1.00000e-13
1027.45	1.00000e-13
1031.98	1.00000e-13
1036.51	1.00000e-13
1041.04	4.17073e-6
1045.57	1.00000e-13
1050.09	1.00000e-13
1054.60	1.00000e-13
1059.13	1.00000e-13
1063.66	1.00000e-13
1068.18	1.00000e-13
1072.71	2.43292e-6
1077.24	1.00000e-13
1081.76	1.00000e-13
1086.29	1.00000e-13
1090.82	1.00000e-13
1095.34	1.00000e-13
1099.87	1.00000e-13
1104.39	1.00000e-13
1108.92	1.00000e-13
1113.45	1.00000e-13
1117.98	1.00000e-13
1122.51	1.00000e-13
1127.04	1.00000e-13
1131.56	1.00000e-13
1136.09	8.68901e-6
1140.60	1.00000e-13
1145.13	1.00000e-13
1149.65	1.00000e-13
1154.18	1.00000e-13
1158.71	1.00000e-13
1163.23	1.00000e-13
1167.76	1.00000e-13
1172.29	1.00000e-13
1176.81	1.00000e-13
1181.34	1.00000e-13
1185.86	1.00000e-13
1190.39	1.00000e-13
1194.92	1.00000e-13
1199.45	1.00000e-13
1203.98	1.00000e-13
1208.50	1.00000e-13
1213.03	1.00000e-13
1217.56	5.90853e-6
1222.07	1.00000e-13
1226.62	1.00000e-13
1231.13	1.00000e-13
1235.65	1.00000e-13
1240.18	1.00000e-13
1244.70	3.47560e-7
1249.23	1.00000e-13
1253.76	1.00000e-13
1258.28	1.00000e-13
1262.81	1.00000e-13
1267.34	1.00000e-13
1271.86	1.81542e-4
1276.39	3.97598e-3
1280.92	0.0161589
1285.45	1.03944e-3
1289.98	1.67061e-4
1294.51	1.06585e-5
1299.03	3.46402e-5
1303.56	1.00000e-13
1308.09	1.00000e-13
1312.60	1.00000e-13
1314.23	1.00000e-13