Folder: data-visualizer/data/TGA/005d-L_M (part 2)

File: ExpDat_2025_07_12_SL_PS_250704-P5EDR1-V3+4_isothermal.csv
#EXPORTTYPE:                 ,DATA ALL
#FILE:                       ,2025_07_12_SL_PS_250704-P5EDR1-V3+4_isothermal.ngb-ss5
#FORMAT:                     ,NETZSCH5
#FTYPE:                      ,ASCII
#IDENTITY:                   ,250704-P5EDR1-V3+4
#DECIMAL:                    ,POINT
#SEPARATOR:                  ,COMMA
#MTYPE:                      ,DSC
#INSTRUMENT:                 ,NETZSCH STA 449F5
#PROJECT:                    ,
#DATE/TIME:                  ,7/12/2025 6:49:41 PM (UTC-4)
#CORR. FILE:                 ,
#TEMPCAL:                    ,05-05-2025 14:38
#SENSITIVITY:                ,28-06-2023 13:53
#LABORATORY:                 ,Tran/AAG
#OPERATOR:                   ,Stanley
#REMARK:                     ,2025_03_29_SL_005d_M1_isothermal
#SAMPLE:                     ,250704-P5EDR1-V3+4
#SAMPLE MASS /mg:            ,4.65
#MATERIAL:                   ,Polystyrene
#REFERENCE:                  ,
#REFERENCE MASS /mg:         ,0
#TYPE OF CRUCIBLE:           ,Al2O3 85 ‘l, open
#SAMPLE CRUCIBLE MASS /mg:   ,0
#REFERENCE CRUCIBLE MASS /mg:,0
#DSC RANGE /‘V:              ,5000
#TG RANGE /mg:               ,35000
#TAU-R:                      ,---
#CORR. CODE:                 ,000
#EXO:                        ,-1
#RANGE:                      ,30›C....800›C/0.0....20.0K/min
#SEGMENT:                    ,S1-5/5
#SEG. 1:                     ,30›C/10.0(K/min)/100›C
#SEG. 2:                     ,100›C/00:10/100›C
#SEG. 3:                     ,100›C/5.0(K/min)/300›C
#SEG. 4:                     ,300›C/20:00/300›C
#SEG. 5:                     ,300›C/20.0(K/min)/800›C

##Temp./›C,Time/min,DSC/(mW/mg),Mass/%,Gas Flow(purge2)/(ml/min),Gas Flow(protective)/(ml/min),TIC(scan:1)/A,Sensit./(uV/mW),Segment
 39.51800,   0.00000,      1.10024,    100,50.00000,53.00000,            ,0.92502,1
 75.61300,   6.44000,      3.30514,     95.30430,50.00000,52.00000,2.554982e-09,0.92542,1
102.909,   9.92083,      1.79462,     93.06108,50.00000,53.00000,2.550299e-09,0.92565,2
109.135,  13.14083,      0.27026,     90.72538,50.00000,53.00000,2.546862e-09,0.92589,2
107.222,  16.36083,     -0.36221,     89.14409,50.00000,53.00000,2.548228e-09,0.92611,2
118.29,  22.20083,      1.88357,     91.29226,50.00000,53.00000,2.539766e-09,0.92609,3
154.977,  28.64083,      2.80360,     92.17054,50.00000,53.00000,2.531475e-09,0.92463,3
189.43,  35.08083,      2.70327,     91.87140,50.00000,53.00000,2.533465e-09,0.92325,3
221.66,  41.52083,      2.69911,     91.04172,50.00000,53.00000,2.533973e-09,0.92198,3
253.685,  47.96083,      2.67850,     89.38731,50.00000,53.00000,2.524612e-09,0.92095,3
285.762,  54.40083,      2.55489,     87.02000,50.00000,53.00000,2.520060e-09,0.92010,3
301.324,  66.66083,     -0.89388,     80.48731,50.00000,53.00000,2.516588e-09,0.91893,4
300.031,  82.76083,     -0.75036,     77.11290,50.00000,53.00000,2.512326e-09,0.91853,4
300,  98.86083,     -0.75304,     75.29290,50.00000,53.00000,2.503312e-09,0.91886,4
300.005, 114.961,     -0.75429,     74.11548,50.00000,53.00000,2.504498e-09,0.91944,4
300.023, 131.061,     -0.76244,     73.24194,50.00000,53.00000,2.498782e-09,0.91598,4
300.012, 147.161,     -0.76389,     72.52172,50.00000,53.00000,2.493527e-09,0.90739,4
300.009, 163.261,     -0.76451,     71.88688,50.00000,53.00000,2.491295e-09,0.89587,4
300.006, 179.361,     -0.76305,     71.30774,50.00000,53.00000,2.487210e-09,0.88325,4
300.029, 195.461,     -0.76578,     70.74323,50.00000,53.00000,2.480806e-09,0.86970,4
300.02, 211.561,     -0.76494,     70.22022,50.00000,53.00000,2.474335e-09,0.85492,4
300.017, 227.661,     -0.76994,     69.71656,50.00000,53.00000,2.470536e-09,0.83920,4
300.025, 243.761,     -0.76890,     69.21548,50.00000,53.00000,2.470092e-09,0.82252,4
300.016, 259.861,     -0.77139,     68.71656,50.00000,53.00000,2.472559e-09,0.80509,4
300.015, 275.961,     -0.76847,     68.25183,50.00000,53.00000,2.470181e-09,0.78564,4
300.028, 292.061,     -0.77078,     67.78473,50.00000,53.00000,2.461873e-09,0.78622,4
300.013, 308.161,     -0.77077,     67.29570,50.00000,53.00000,2.469063e-09,0.78712,4
300.015, 324.261,     -0.77139,     66.85785,50.00000,53.00000,2.467507e-09,0.78719,4
300.005, 340.361,     -0.77201,     66.35419,50.00000,53.00000,2.460515e-09,0.78719,4
300.012, 356.461,     -0.77410,     65.91140,50.00000,53.00000,2.458309e-09,0.78720,4
300.021, 372.561,     -0.77536,     65.43935,50.00000,53.00000,2.456129e-09,0.78719,4
300.009, 388.661,     -0.77451,     64.99419,50.00000,53.00000,2.454554e-09,0.78718,4
300.026, 404.761,     -0.77515,     64.53441,50.00000,53.00000,2.446937e-09,0.78719,4
300.014, 420.861,     -0.77973,     64.05505,50.00000,53.00000,2.437875e-09,0.78719,4
300.024, 436.961,     -0.77474,     63.61226,50.00000,53.00000,2.435327e-09,0.78719,4
300.019, 453.061,     -0.77890,     63.14753,50.00000,53.00000,2.437934e-09,0.78719,4
300.02, 469.161,     -0.77869,     62.69247,50.00000,53.00000,2.433533e-09,0.78719,4
300.009, 485.261,     -0.77889,     62.22538,50.00000,53.00000,2.429913e-09,0.78719,4
300.02, 501.361,     -0.78057,     61.76559,50.00000,53.00000,2.422067e-09,0.78719,4
300.029, 517.461,     -0.78266,     61.30581,50.00000,53.00000,2.421006e-09,0.78719,4
300.014, 533.561,     -0.77910,     60.87032,50.00000,53.00000,2.415900e-09,0.78719,4
300.014, 549.661,     -0.78515,     60.43484,50.00000,53.00000,2.420204e-09,0.78719,4
300.007, 565.761,     -0.78827,     59.96753,50.00000,53.00000,2.420620e-09,0.78719,4
300.016, 581.861,     -0.78432,     59.53699,50.00000,53.00000,2.412417e-09,0.78718,4
300.02, 597.961,     -0.78953,     59.04796,50.00000,53.00000,2.410953e-09,0.78719,4
300.015, 614.061,     -0.78640,     58.60022,50.00000,53.00000,2.411140e-09,0.78718,4
300.008, 630.161,     -0.78723,     58.17441,50.00000,53.00000,2.405847e-09,0.78720,4
300.009, 646.261,     -0.78973,     57.66602,50.00000,53.00000,2.397668e-09,0.78720,4
300.013, 662.361,     -0.78807,     57.22086,50.00000,53.00000,2.399767e-09,0.78719,4
300.011, 678.461,     -0.79182,     56.74624,50.00000,53.00000,2.397229e-09,0.78720,4
300.018, 694.561,     -0.79370,     56.32301,50.00000,53.00000,2.390781e-09,0.78720,4
300.012, 710.661,     -0.79140,     55.85591,50.00000,53.00000,2.385588e-09,0.78720,4
300.019, 726.761,     -0.79537,     55.41785,50.00000,53.00000,2.389119e-09,0.78720,4
300.026, 742.861,     -0.79704,     54.93871,50.00000,53.00000,2.380881e-09,0.78720,4
300.003, 758.961,     -0.79493,     54.50796,50.00000,53.00000,2.377128e-09,0.78718,4
300.011, 775.061,     -0.79661,     54.01892,50.00000,53.00000,2.377566e-09,0.78718,4
300.011, 791.161,     -0.80119,     53.55914,50.00000,53.00000,2.369734e-09,0.78719,4
300.012, 807.261,     -0.79619,     53.09935,50.00000,53.00000,2.371689e-09,0.78718,4
300.035, 823.361,     -0.79767,     52.65161,50.00000,53.00000,2.368810e-09,0.78719,4
300.023, 839.461,     -0.79600,     52.19914,50.00000,53.00000,2.360858e-09,0.78718,4
300.023, 855.561,     -0.80329,     51.71011,50.00000,53.00000,2.365957e-09,0.78720,4
300.023, 871.661,     -0.80162,     51.25011,50.00000,53.00000,2.359556e-09,0.78719,4
300.022, 887.761,     -0.80412,     50.75140,50.00000,53.00000,2.360773e-09,0.78718,4
300.012, 903.861,     -0.80265,     50.31828,50.00000,53.00000,2.352278e-09,0.78719,4
300.028, 919.961,     -0.80017,     49.86581,50.00000,53.00000,2.343754e-09,0.78720,4
[...]
300.015,1080.96,     -0.81224,     45.31376,50.00000,53.00000,2.321657e-09,0.78719,4
300.018,1097.06,     -0.81246,     44.85871,50.00000,53.00000,2.319767e-09,0.78719,4
300.008,1113.16,     -0.81411,     44.36237,50.00000,53.00000,2.320338e-09,0.78718,4
300.012,1129.26,     -0.81370,     43.90022,50.00000,54.00000,2.317444e-09,0.78720,4
300.018,1145.36,     -0.81371,     43.44280,50.00000,54.00000,2.313411e-09,0.78719,4
300.01,1161.46,     -0.81391,     43.00237,50.00000,54.00000,2.311383e-09,0.78718,4
300.012,1177.56,     -0.81453,     42.54258,50.00000,54.00000,2.314342e-09,0.78717,4
300.02,1193.66,     -0.81350,     42.08753,50.00000,54.00000,2.313026e-09,0.78719,4
300.014,1209.76,     -0.81620,     41.62043,50.00000,54.00000,2.312279e-09,0.78719,4
300.018,1225.86,     -0.81600,     41.16065,50.00000,54.00000,2.316434e-09,0.78719,4
300.027,1241.96,     -0.81663,     40.73247,50.00000,54.00000,2.312377e-09,0.78719,4
300.027,1257.02,     -0.81580,     40.30667,50.00000,54.00000,2.304508e-09,0.78718,5
305.179,1257.82,      3.60918,     41.47204,50.00000,54.00000,2.303899e-09,0.78719,5
319.179,1258.63,      8.98917,     42.54989,50.00000,54.00000,2.306545e-09,0.78719,5
332.842,1259.43,      9.50566,     42.69591,50.00000,54.00000,2.311336e-09,0.78720,5
348.052,1260.24,     11.09841,     43.05097,50.00000,54.00000,2.307489e-09,0.78718,5
365.309,1261.04,     12.58862,     43.07785,50.00000,54.00000,2.307922e-09,0.78719,5
382.695,1261.85,     13.00007,     42.41118,50.00000,54.00000,2.308324e-09,0.78719,5
400.247,1262.65,     13.51667,     40.04387,50.00000,54.00000,2.306441e-09,0.78719,5
417.793,1263.46,     14.21673,     33.58194,50.00000,54.00000,2.308304e-09,0.78719,5
435.088,1264.26,     15.08398,     20.06172,50.00000,54.00000,2.303879e-09,0.78719,5
452.239,1265.07,     14.70808,      5.58538,50.00000,54.00000,2.305767e-09,0.78719,5
469.213,1265.87,     13.02573,     -0.51892,50.00000,54.00000,2.306934e-09,0.78719,5
485.996,1266.68,     12.00668,     -1.66968,50.00000,54.00000,2.301637e-09,0.78719,5
502.591,1267.48,     11.32952,     -1.70624,50.00000,54.00000,2.308295e-09,0.78718,5
519.061,1268.29,     10.73285,     -1.61849,50.00000,54.00000,2.306059e-09,0.78718,5
535.415,1269.09,     10.13874,     -1.47269,50.00000,54.00000,2.306437e-09,0.78719,5
551.731,1269.9,      9.56379,     -1.32667,50.00000,54.00000,2.308981e-09,0.78718,5
568.005,1270.7,      8.95592,     -1.15140,50.00000,54.00000,2.305394e-09,0.78719,5
584.239,1271.51,      8.34694,     -1.03462,50.00000,54.00000,2.303631e-09,0.78719,5
600.457,1272.31,      7.73142,     -0.88860,50.00000,54.00000,2.303949e-09,0.78719,5
616.665,1273.12,      7.12873,     -0.74280,50.00000,54.00000,2.302982e-09,0.78720,5
632.841,1273.92,      6.49715,     -0.59441,50.00000,54.00000,2.309944e-09,0.78720,5
649.026,1274.73,      5.92701,     -0.50667,50.00000,54.00000,2.311554e-09,0.78718,5
665.192,1275.53,      5.34338,     -0.36065,50.00000,54.00000,2.309595e-09,0.78719,5
681.352,1276.34,      4.76557,     -0.27312,50.00000,54.00000,2.305984e-09,0.78720,5
697.528,1277.14,      4.16385,     -0.15634,50.00000,54.00000,2.306554e-09,0.78720,5
713.722,1277.95,      3.50161,-6.881720e-02,50.00000,54.00000,2.305949e-09,0.78719,5
729.891,1278.75,      2.75927, 4.301075e-03,50.00000,54.00000,2.310977e-09,0.78720,5
746.111,1279.56,      2.00562,      0.12108,50.00000,54.00000,2.312394e-09,0.78719,5
762.316,1280.36,      1.22670,      0.20129,50.00000,54.00000,2.303092e-09,0.78720,5
778.492,1281.17,      0.46776,      0.28882,50.00000,54.00000,2.306856e-09,0.78719,5
794.487,1281.96,     -0.24587,      0.35462,50.00000,54.00000,            ,0.44710,5

File: ExpDat_2025_07_13_SL_PS_250704-P5EDR1-V3+4_dynamic.csv
#EXPORTTYPE:                 ,DATA ALL
#FILE:                       ,2025_07_13_SL_PS_250704-P5EDR1-V3+4_dynamic.ngb-ss5
#FORMAT:                     ,NETZSCH5
#FTYPE:                      ,ASCII
#IDENTITY:                   ,250704-P5EDR1-V3+4
#DECIMAL:                    ,POINT
#SEPARATOR:                  ,COMMA
#MTYPE:                      ,DSC
#INSTRUMENT:                 ,NETZSCH STA 449F5
#PROJECT:                    ,
#DATE/TIME:                  ,7/13/2025 4:54:32 PM (UTC-4)
#CORR. FILE:                 ,
#TEMPCAL:                    ,05-05-2025 14:38
#SENSITIVITY:                ,28-06-2023 13:53
#LABORATORY:                 ,Tran/AAG
#OPERATOR:                   ,Stanley
#REMARK:                     ,2025_03_20_Styrofoam_dynamic
#SAMPLE:                     ,250704-P5EDR1-V3+4
#SAMPLE MASS /mg:            ,5.74
#MATERIAL:                   ,Polystyrene
#REFERENCE:                  ,
#REFERENCE MASS /mg:         ,0
#TYPE OF CRUCIBLE:           ,Al2O3 85 ‘l, open
#SAMPLE CRUCIBLE MASS /mg:   ,0
#REFERENCE CRUCIBLE MASS /mg:,0
#DSC RANGE /‘V:              ,5000
#TG RANGE /mg:               ,35000
#TAU-R:                      ,---
#CORR. CODE:                 ,000
#EXO:                        ,-1
#RANGE:                      ,20›C....800›C/0.0....20.0K/min
#SEGMENT:                    ,S1-4/4
#SEG. 1:                     ,20›C/5.0(K/min)/100›C
#SEG. 2:                     ,100›C/00:05/100›C
#SEG. 3:                     ,100›C/1.0(K/min)/400›C
#SEG. 4:                     ,400›C/20.0(K/min)/800›C

##Temp./›C,Time/min,DSC/(mW/mg),Mass/%,Gas Flow(purge2)/(ml/min),Gas Flow(protective)/(ml/min),TIC(scan:1)/A,Sensit./(uV/mW),Segment
 56.95500,  0.00000,      2.93877,    100,50.00000,56.00000,            ,0.92619,1
 73.62200,  5.06667,     -0.34410,     86.78467,50.00000,54.00000,2.316681e-09,0.92567,1
 64.96000, 10.13333,     -0.60984,     84.90052,50.00000,54.00000,2.312941e-09,0.92545,1
 77.99800, 15.20000,      1.26327,     88.75958,50.00000,54.00000,2.315358e-09,0.92565,1
 98.47000, 19.18333,      0.84432,     88.46394,50.00000,54.00000,2.317785e-09,0.92585,2
105.514, 23.66667,      0.15842,     87.29129,50.00000,54.00000,2.311378e-09,0.92604,3
108.505, 28.73333,      0.11574,     86.99355,50.00000,54.00000,2.316033e-09,0.92611,3
112.48, 33.80000,      0.20890,     87.01725,50.00000,54.00000,2.308248e-09,0.92580,3
117.408, 38.86667,      0.26369,     86.99948,50.00000,54.00000,2.311220e-09,0.92456,3
122.566, 43.93333,      0.29112,     86.95226,50.00000,55.00000,2.304522e-09,0.92295,3
127.707, 49.00000,      0.31171,     86.91080,50.00000,55.00000,2.304530e-09,0.92160,3
132.769, 54.06667,      0.33798,     86.86951,50.00000,55.00000,2.307199e-09,0.92058,3
137.857, 59.13333,      0.36428,     86.85174,50.00000,55.00000,2.295122e-09,0.91989,3
142.92, 64.20000,      0.39341,     86.82805,50.00000,55.00000,2.298869e-09,0.91944,3
147.992, 69.26667,      0.42127,     86.81028,50.00000,55.00000,2.294407e-09,0.91911,3
153.059, 74.33333,      0.45007,     86.79251,50.00000,55.00000,2.297377e-09,0.91875,3
158.126, 79.40000,      0.47941,     86.78659,50.00000,55.00000,2.294929e-09,0.91833,3
163.2, 84.46667,      0.50883,     86.77282,50.00000,55.00000,2.289904e-09,0.91783,3
168.267, 89.53333,      0.53866,     86.75505,50.00000,55.00000,2.295178e-09,0.91724,3
173.329, 94.60000,      0.56801,     86.67439,50.00000,55.00000,2.294914e-09,0.91659,3
178.399, 99.66667,      0.60153,     86.58554,50.00000,55.00000,2.294578e-09,0.91589,3
183.466,104.733,      0.63310,     86.46150,50.00000,55.00000,2.288621e-09,0.91516,3
188.532,109.8,      0.67027,     86.27021,50.00000,55.00000,2.292305e-09,0.91440,3
193.602,114.867,      0.70128,     86.06916,50.00000,55.00000,2.289826e-09,0.91362,3
198.673,119.933,      0.74130,     85.79129,50.00000,55.00000,2.283395e-09,0.91282,3
203.749,125,      0.77820,     85.52526,50.00000,55.00000,2.284664e-09,0.91200,3
208.802,130.067,      0.81410,     85.20993,50.00000,55.00000,2.285556e-09,0.91117,3
213.871,135.133,      0.85333,     84.81969,50.00000,55.00000,2.287404e-09,0.91032,3
218.928,140.2,      0.88725,     84.45296,50.00000,55.00000,2.280596e-09,0.90944,3
224.007,145.267,      0.92267,     84.04704,50.00000,55.00000,2.273337e-09,0.90855,3
229.058,150.333,      0.95628,     83.64495,50.00000,55.00000,2.275879e-09,0.90762,3
234.128,155.4,      0.98717,     83.26847,50.00000,55.00000,2.275043e-09,0.90669,3
239.191,160.467,      1.02065,     82.89599,50.00000,55.00000,2.271773e-09,0.90572,3
244.259,165.533,      1.05390,     82.51167,50.00000,55.00000,2.263259e-09,0.90473,3
249.319,170.6,      1.09124,     82.16272,50.00000,55.00000,2.264308e-09,0.90373,3
254.38,175.667,      1.12728,     81.78432,50.00000,55.00000,2.262307e-09,0.90272,3
259.468,180.733,      1.16154,     81.37631,50.00000,55.00000,2.257733e-09,0.90170,3
264.52,185.8,      1.19913,     80.96045,50.00000,55.00000,2.255923e-09,0.90065,3
269.59,190.867,      1.23460,     80.53275,50.00000,55.00000,2.258704e-09,0.89955,3
274.649,195.933,      1.27397,     80.08136,50.00000,56.00000,2.250356e-09,0.89845,3
279.699,201,      1.31236,     79.61429,50.00000,56.00000,2.252611e-09,0.89734,3
284.778,206.067,      1.34962,     79.16498,50.00000,56.00000,2.245328e-09,0.89620,3
289.841,211.133,      1.38452,     78.69181,50.00000,56.00000,2.248800e-09,0.89504,3
294.905,216.2,      1.42308,     78.21882,50.00000,56.00000,2.244131e-09,0.89387,3
299.965,221.267,      1.45927,     77.70244,50.00000,56.00000,2.239851e-09,0.89270,3
305.044,226.333,      1.49955,     77.20383,50.00000,56.00000,2.236767e-09,0.89150,3
310.103,231.4,      1.54101,     76.70714,50.00000,56.00000,2.234462e-09,0.89026,3
315.171,236.467,      1.57822,     76.16115,50.00000,56.00000,2.236261e-09,0.88902,3
320.246,241.533,      1.61404,     75.55209,50.00000,56.00000,2.241171e-09,0.88775,3
325.311,246.6,      1.65224,     74.86812,50.00000,56.00000,2.239240e-09,0.88647,3
330.377,251.667,      1.69025,     74.08571,50.00000,56.00000,2.233108e-09,0.88518,3
335.441,256.733,      1.73229,     73.10819,50.00000,56.00000,2.232690e-09,0.88384,3
340.494,261.8,      1.76882,     71.88223,50.00000,56.00000,2.227750e-09,0.88253,3
345.569,266.867,      1.81499,     70.20296,50.00000,56.00000,2.226616e-09,0.88118,3
350.633,271.933,      1.86876,     67.93815,50.00000,56.00000,2.226790e-09,0.87980,3
355.706,277,      1.91908,     64.75906,50.00000,56.00000,2.222769e-09,0.87843,3
360.766,282.067,      1.98369,     60.30470,50.00000,56.00000,2.219795e-09,0.87707,3
365.824,287.133,      2.06491,     53.96010,50.00000,56.00000,2.216538e-09,0.87566,3
370.893,292.2,      2.14224,     45.80610,50.00000,56.00000,2.216390e-09,0.87423,3
375.965,297.267,      2.18916,     35.78763,50.00000,56.00000,2.215242e-09,0.87278,3
381.025,302.333,      2.17265,     24.64774,50.00000,56.00000,2.212789e-09,0.87132,3
386.097,307.4,      2.09975,     13.81533,50.00000,56.00000,2.212008e-09,0.86985,3
391.17,312.467,      1.95715,      5.20418,50.00000,56.00000,2.218796e-09,0.86835,3
396.227,317.533,      1.79705,     -0.38171,50.00000,56.00000,2.213756e-09,0.86685,3
399.786,321.058,      1.69780,     -2.71725,50.00000,56.00000,2.206805e-09,0.86583,4
402.123,321.438,      3.55119,     -2.64826,50.00000,56.00000,2.209118e-09,0.86568,4
[...]
473.803,325.238,     11.53367,     -4.22700,50.00000,56.00000,2.210100e-09,0.86454,4
481.682,325.618,     11.63339,     -4.28014,50.00000,56.00000,2.211777e-09,0.86445,4
489.629,325.998,     11.76549,     -4.27230,50.00000,56.00000,2.207659e-09,0.86436,4
497.615,326.378,     11.87360,     -4.22300,50.00000,56.00000,2.209162e-09,0.86420,4
505.603,326.758,     11.93131,     -4.17578,50.00000,56.00000,2.209088e-09,0.86410,4
513.562,327.138,     11.95682,     -4.15209,50.00000,56.00000,2.208591e-09,0.86400,4
521.506,327.518,     11.97433,     -4.05749,50.00000,56.00000,2.211736e-09,0.86386,4
529.428,327.898,     11.98596,     -4.03380,50.00000,56.00000,2.210924e-09,0.86376,4
537.332,328.278,     11.99092,     -3.93920,50.00000,56.00000,2.209591e-09,0.86367,4
545.208,328.658,     11.99422,     -3.89199,50.00000,56.00000,2.209373e-09,0.86351,4
553.086,329.038,     12.00210,     -3.82091,50.00000,56.00000,2.207840e-09,0.86341,4
560.939,329.418,     11.99236,     -3.77369,50.00000,56.00000,2.209863e-09,0.86331,4
568.782,329.798,     11.97834,     -3.72631,50.00000,56.00000,2.208449e-09,0.86316,4
576.582,330.178,     11.97132,     -3.67909,50.00000,56.00000,2.206337e-09,0.86306,4
584.381,330.558,     11.96630,     -3.60819,50.00000,56.00000,2.208796e-09,0.86296,4
592.17,330.938,     11.96694,     -3.53711,50.00000,56.00000,2.208837e-09,0.86281,4
599.951,331.318,     11.96630,     -3.48990,50.00000,56.00000,2.210181e-09,0.86271,4
607.711,331.698,     11.96674,     -3.45436,50.00000,56.00000,2.207419e-09,0.86261,4
615.457,332.078,     11.96669,     -3.37944,50.00000,56.00000,2.201622e-09,0.86251,4
623.184,332.458,     11.97477,     -3.33223,50.00000,56.00000,2.209684e-09,0.86236,4
630.899,332.838,     11.98522,     -3.28101,50.00000,56.00000,2.209602e-09,0.86227,4
638.611,333.218,     12.00059,     -3.23362,50.00000,56.00000,2.210129e-09,0.86216,4
646.315,333.598,     12.02129,     -3.16063,50.00000,56.00000,2.212436e-09,0.86201,4
654.017,333.978,     12.04000,     -3.13711,50.00000,56.00000,2.209330e-09,0.86190,4
661.696,334.358,     12.05731,     -3.08972,50.00000,56.00000,2.210128e-09,0.86181,4
669.389,334.738,     12.06256,     -3.04251,50.00000,56.00000,2.200552e-09,0.86166,4
677.049,335.118,     12.05424,     -2.99512,50.00000,56.00000,2.207594e-09,0.86157,4
684.747,335.498,     12.03375,     -2.94791,50.00000,56.00000,2.206463e-09,0.86146,4
692.424,335.878,     11.98889,     -2.92422,50.00000,56.00000,2.206201e-09,0.86131,4
700.097,336.258,     11.92024,     -2.90052,50.00000,56.00000,2.206110e-09,0.86120,4
707.771,336.638,     11.82638,     -2.85906,50.00000,56.00000,2.204790e-09,0.86110,4
715.448,337.018,     11.71773,     -2.81185,50.00000,56.00000,2.206939e-09,0.86095,4
723.117,337.398,     11.59317,     -2.78815,50.00000,56.00000,2.206803e-09,0.86085,4
730.792,337.778,     11.47483,     -2.76446,50.00000,56.00000,2.211626e-09,0.86075,4
738.45,338.158,     11.33929,     -2.71725,50.00000,56.00000,2.208748e-09,0.86065,4
746.118,338.538,     11.18829,     -2.66986,50.00000,56.00000,2.206967e-09,0.86050,4
753.776,338.918,     11.02663,     -2.66986,50.00000,56.00000,2.203525e-09,0.86039,4
761.441,339.298,     10.85264,     -2.59704,50.00000,56.00000,2.213538e-09,0.86029,4
769.105,339.678,     10.66612,     -2.57735,50.00000,56.00000,2.206529e-09,0.86014,4
776.74,340.058,     10.47341,     -2.55366,50.00000,56.00000,2.207438e-09,0.86003,4
784.394,340.438,     10.27908,     -2.50627,50.00000,56.00000,2.205291e-09,0.85995,4
792.05,340.818,     10.07830,     -2.48275,50.00000,56.00000,            ,0.44807,4
794.358,340.933,     10.01922,     -2.48275,50.00000,56.00000,            ,0.44715,4