Folder: data-visualizer/data/TGA/005d-L_M (part 10)

File: L4.txt
Filename	L4
Instrument name
Operator	Galyna
rundate	2025-02-24
Sample name	L4
[step]
Step 1
Time	Temperature	Weight	Weight	Deriv. Weight
min	°C	mg	%	% / °C
0.01	26.54	432.332	99.999	-4.21825e-5
5.21	43.53	432.328	99.998	-3.15995e-5
10.46	68.73	432.327	99.998	-3.71053e-5
15.71	95.05	432.322	99.996	-6.22815e-5
20.96	102.34	432.313	99.995	-1.21759e-4
26.21	101.10	432.308	99.993	-2.31224e-5
31.46	124.44	432.311	99.994	-1.58803e-5
36.71	150.38	432.308	99.993	-2.09062e-5
41.96	176.84	432.305	99.993	-2.58988e-5
47.21	203.11	432.301	99.992	-2.76369e-5
52.46	229.38	432.299	99.991	-2.96361e-5
57.71	255.68	432.295	99.990	-3.44247e-5
62.96	281.97	432.292	99.990	-4.69335e-5
68.21	301.35	432.285	99.988	-8.15343e-5
73.46	300.26	432.281	99.987	-9.84587e-5
78.71	299.82	432.277	99.986	4.61779e-4
83.96	300.06	432.278	99.986	-1.92636e-3
89.21	299.99	432.277	99.986	0.0104413
94.46	300.00	432.273	99.985	-0.0102476
99.71	299.99	432.271	99.985	-0.0426593
104.96	300.00	432.270	99.984	-0.0391850
110.21	300.00	432.266	99.983	0.122828
115.46	300.00	432.254	99.981	-0.0584596
120.71	300.00	432.250	99.980	0.326313
125.96	300.00	432.249	99.980	-0.105356
131.21	300.00	432.246	99.979	-0.194366
136.46	300.00	432.243	99.978	-0.0848539
141.71	300.00	432.242	99.978	0.263718
146.96	300.00	432.236	99.977	0.0773079
152.21	300.00	432.237	99.977	0.121845
157.46	300.00	432.235	99.976	0.0679478
162.71	300.00	432.232	99.976	0.111048
167.96	300.00	432.241	99.978	0.137820
173.21	300.00	432.231	99.976	0.0953446
178.46	300.00	432.230	99.975	-0.0745077
183.71	300.00	432.227	99.974	-0.147896
188.96	300.00	432.226	99.974	-0.117340
194.21	300.00	432.223	99.974	0.0372590
199.46	300.00	432.224	99.974	0.100660
204.71	300.00	432.219	99.973	0.0813002
209.96	300.00	432.222	99.973	6.31461e-3
215.21	300.00	432.217	99.972	-0.102476
220.46	300.00	432.216	99.972	-0.0954011
225.71	300.00	432.209	99.970	-0.0315079
230.96	300.00	432.213	99.971	0.0969165
236.21	300.00	432.208	99.970	0.0905641
241.46	300.00	432.211	99.971	0.0214339
246.71	300.00	432.206	99.970	0.0265591
251.96	300.00	432.204	99.969	0.109538
257.21	300.00	432.204	99.969	0.103514
262.46	300.00	432.205	99.969	0.0269128
267.71	300.00	432.203	99.969	-0.0552782
272.96	300.00	432.196	99.967	0.0542307
278.21	300.00	432.197	99.968	0.113215
283.46	300.00	432.196	99.967	-0.0435152
288.71	300.00	432.195	99.967	-0.0265889
293.96	300.00	432.193	99.967	0.0261318
299.21	300.00	432.195	99.967	-1.14239e-3
304.46	300.00	432.190	99.966	0.0246535
309.71	300.00	432.188	99.966	-0.0196420
314.96	300.00	432.188	99.966	0.0622428
320.21	300.00	432.189	99.966	0.0729344
325.46	300.00	432.184	99.965	-0.0688889
330.71	300.00	432.182	99.964	-0.0640645
335.96	300.00	432.180	99.964	0.0775415
341.21	300.00	432.178	99.963	0.0589575
346.46	300.00	432.179	99.964	0.0280031
351.71	300.00	432.174	99.962	-8.49261e-3
356.96	300.00	432.171	99.962	0.0215109
362.21	300.00	432.172	99.962	0.121177
367.46	300.00	432.176	99.963	0.0501921
372.71	300.00	432.170	99.961	0.107794
377.96	300.00	432.167	99.961	0.111676
383.21	300.00	432.169	99.961	0.0644199
388.46	300.00	432.165	99.960	-8.54569e-3
393.71	300.00	432.165	99.960	-0.161976
398.96	300.00	432.161	99.959	-0.113712
404.21	300.00	432.157	99.958	0.198590
409.46	300.00	432.155	99.958	0.125026
414.71	300.00	432.152	99.957	6.28435e-3
419.96	300.00	432.155	99.958	-8.17935e-3
425.21	300.00	432.151	99.957	-0.0521033
430.46	300.00	432.146	99.956	0.103066
435.71	300.00	432.143	99.955	-0.0438146
440.96	300.00	432.143	99.955	0.0602021
446.21	300.00	432.142	99.955	0.144763
451.46	300.00	432.141	99.955	0.110997
456.71	300.00	432.138	99.954	0.0467015
461.96	300.00	432.136	99.954	0.0592670
467.21	300.00	432.132	99.953	0.0256720
472.46	300.00	432.133	99.953	-1.61890e-3
477.71	300.00	432.130	99.952	-0.0677397
482.96	300.00	432.130	99.952	0.0865061
488.21	300.00	432.130	99.952	0.0495023
493.46	300.00	432.132	99.952	0.0441843
498.71	300.00	432.126	99.951	0.143427
503.96	300.00	432.123	99.950	0.0557593
509.21	300.00	432.120	99.950	0.0112998
514.46	300.00	432.119	99.950	0.0749667
519.71	300.00	432.117	99.949	-0.0851420
524.96	300.00	432.116	99.949	0.0294619
530.21	300.00	432.115	99.949	0.140546
535.46	300.00	432.111	99.948	0.0194768
540.71	300.00	432.103	99.946	0.0905767
545.96	300.00	432.108	99.947	8.63518e-3
551.21	300.00	432.109	99.947	-0.0262721
556.46	300.00	432.106	99.946	0.124329
561.71	300.00	432.107	99.947	0.141902
566.96	300.00	432.102	99.946	0.0321992
572.21	300.00	432.100	99.945	-0.0264461
577.46	300.00	432.099	99.945	-0.0137831
582.71	300.00	432.098	99.945	0.111057
587.96	300.00	432.095	99.944	0.0455939
593.21	300.00	432.093	99.944	-0.154067
598.46	300.00	432.091	99.943	-0.0521160
603.71	300.00	432.090	99.943	0.0295389
608.96	300.00	432.086	99.942	0.0154826
614.21	300.00	432.088	99.942	0.0718659
619.46	300.00	432.086	99.942	0.0690722
624.71	300.00	432.085	99.942	0.0807071
629.96	300.00	432.085	99.942	-0.0769698
635.21	300.00	432.081	99.941	-0.130844
640.46	300.00	432.080	99.941	-0.0803185
645.71	300.00	432.078	99.940	0.0605246
650.96	300.00	432.078	99.940	0.0542881
656.21	300.00	432.078	99.940	0.0387422
661.46	300.00	432.077	99.940	-0.0257491
666.71	300.00	432.076	99.940	-0.0801590
671.96	300.00	432.071	99.939	-0.0739306
677.21	300.00	432.075	99.939	0.155824
682.46	300.00	432.066	99.937	0.126242
687.71	300.00	432.069	99.938	-0.0120396
692.96	300.00	432.070	99.938	0.0991381
698.21	300.00	432.070	99.938	0.0868066
703.46	300.00	432.067	99.938	-0.0501739
708.71	300.00	432.067	99.938	-0.139575
713.96	300.00	432.064	99.937	-0.141291
719.21	300.00	432.061	99.936	0.0628836
724.46	300.00	432.061	99.936	0.155082
729.71	300.00	432.058	99.935	0.0860623
734.96	300.00	432.060	99.936	0.102220
740.21	300.00	432.058	99.935	0.0768486
745.46	300.00	432.055	99.935	-0.0760280
750.71	300.00	432.053	99.934	-0.151325
755.96	300.00	432.055	99.935	-0.118197
761.21	300.00	432.047	99.933	-0.0714046
766.46	300.00	432.047	99.933	0.0922734
771.71	300.00	432.046	99.933	0.112343
776.96	300.00	432.047	99.933	0.159593
782.21	300.00	432.044	99.932	0.147361
787.46	300.00	432.043	99.932	1.00770e-3
792.71	300.00	432.041	99.931	-0.150650
797.96	300.00	432.040	99.931	-0.0352498
803.21	300.00	432.041	99.931	0.0406016
808.46	300.00	432.035	99.930	-0.0488751
813.71	300.00	432.035	99.930	0.0291546
818.96	300.00	432.032	99.930	0.0721094
824.21	300.00	432.034	99.930	0.100081
829.46	300.00	432.029	99.929	-0.0972039
834.71	300.00	432.029	99.929	-0.159410
839.96	300.00	432.028	99.929	-0.0792958
845.21	300.00	432.026	99.928	0.114188
850.46	300.00	432.024	99.928	0.0688970
855.71	300.00	432.025	99.928	5.47451e-3
860.96	300.00	432.022	99.927	0.0141982
866.21	300.00	432.020	99.927	-0.0426553
871.46	300.00	432.016	99.926	-0.111255
876.71	300.00	432.013	99.925	-0.130102
881.96	300.00	432.017	99.926	0.0194118
887.21	300.00	432.012	99.925	0.0853072
892.46	300.00	432.012	99.925	0.0424761
897.71	300.00	432.011	99.924	0.0378243
902.96	300.00	432.009	99.924	-3.81791e-3
908.21	300.00	432.008	99.924	-0.115633
913.46	300.00	432.004	99.923	-0.167520
918.71	300.00	432.003	99.923	-0.128719
923.96	300.00	432.003	99.923	0.0946042
929.21	300.00	432.001	99.922	0.107281
934.46	300.00	431.999	99.922	0.0859296
939.71	300.00	431.997	99.921	0.0787360
944.96	300.00	431.998	99.922	0.0395386
950.21	300.00	431.991	99.920	0.120583
955.46	300.00	431.994	99.921	-0.107940
960.71	300.00	431.993	99.920	-0.0936145
965.96	300.00	431.991	99.920	-0.0423398
971.21	300.00	431.991	99.920	0.0193300
976.46	300.00	431.988	99.919	0.0891342
981.71	300.00	431.987	99.919	0.0529961
986.96	300.00	431.986	99.919	0.0322416
992.21	300.00	431.985	99.919	-0.139005
997.46	300.00	431.982	99.918	-0.143011
1002.71	300.00	431.985	99.919	-0.164358
1007.96	300.00	431.978	99.917	0.0774518
1013.21	300.00	431.977	99.917	6.96707e-3
1018.46	300.00	431.976	99.917	0.0303836
1023.71	300.00	431.977	99.917	0.0666214
1028.96	300.00	431.972	99.916	0.123650
1034.21	300.00	431.971	99.915	0.193010
1039.46	300.00	431.971	99.915	-0.211987
1044.71	300.00	431.969	99.915	-0.200728
1049.96	300.00	431.968	99.915	-2.12511e-3
1055.21	300.00	431.965	99.914	0.0545770
1060.46	300.00	431.963	99.914	4.66487e-3
1065.71	300.00	431.960	99.913	0.0268945
1070.96	300.00	431.959	99.913	0.0631312
1076.21	300.00	431.961	99.913	0.162357
1081.46	300.00	431.959	99.912	-0.125230
1086.71	300.00	431.957	99.912	-0.242144
1091.96	300.00	431.953	99.911	-0.172417
1097.21	300.00	431.956	99.912	0.0889728
1102.46	300.00	431.950	99.910	0.109348
1107.71	300.00	431.948	99.910	0.0338955
1112.96	300.00	431.948	99.910	-0.112543
1118.21	300.00	431.945	99.909	-0.110749
1123.46	300.00	431.944	99.909	0.0347559
1128.71	300.00	431.943	99.909	0.0451650
1133.96	300.00	431.944	99.909	0.0605875
1139.21	300.00	431.940	99.908	0.0174223
1144.46	300.00	431.938	99.908	-0.0871396
1149.71	300.00	431.934	99.907	0.0618250
1154.96	300.00	431.935	99.907	0.0366605
1160.21	300.00	431.936	99.907	-0.0521218
1165.46	300.00	431.933	99.907	-0.0448452
1170.71	300.00	431.932	99.906	0.156570
1175.96	300.00	431.931	99.906	0.0846063
1181.21	300.00	431.928	99.905	0.0959977
1186.46	300.00	431.928	99.905	0.0236844
1191.71	300.00	431.927	99.905	0.0631760
1196.96	300.00	431.926	99.905	0.0376221
1202.21	300.00	431.925	99.905	-0.105422
1207.46	300.00	431.922	99.904	-0.0896831
1212.71	300.00	431.920	99.904	0.0691222
1217.96	300.00	431.918	99.903	-6.45945e-3
1223.21	300.00	431.918	99.903	-5.63257e-4
1228.46	300.00	431.916	99.903	0.133890
1233.71	300.00	431.915	99.902	0.172518
1238.96	300.00	431.914	99.902	-0.0559936
1244.21	300.00	431.911	99.901	-0.148352
1249.46	300.00	431.912	99.902	-0.0315983
1254.71	300.00	431.901	99.899	0.0282544
1259.96	300.00	431.908	99.901	-2.03931e-5
1265.21	300.45	431.909	99.901	-9.30272e-5
1270.46	344.11	431.901	99.899	-8.32057e-4
1275.71	397.26	431.722	99.858	-2.20460e-3
1280.96	449.98	430.733	99.629	-1.98557e-3
1286.21	502.66	430.697	99.621	-3.81068e-4
1291.46	555.29	430.697	99.621	4.38761e-6
1296.71	607.91	430.700	99.621	7.78918e-6
1301.96	660.51	430.703	99.622	1.35010e-5
1307.21	713.09	430.701	99.622	1.88903e-5
1312.46	765.66	430.713	99.624	2.15334e-5
1314.54	786.52	430.710	99.624	2.16020e-5

File: L4_000001 -temp_104 AMU_XIC
Time	Ion Current
min	mA
0.00	1.20372e-4
4.53	2.10506e-4
9.05	1.75055e-4
13.58	9.53474e-5
18.10	1.04500e-4
22.63	9.21035e-5
27.16	8.95547e-5
31.69	5.46828e-5
36.21	7.24084e-5
40.74	3.24390e-5
45.26	6.87011e-5
49.79	5.19024e-5
54.32	4.59938e-5
58.85	2.87317e-5
63.37	4.54146e-5
67.90	5.15548e-5
72.43	1.15853e-5
76.95	3.69573e-5
81.48	1.76097e-5
86.00	2.13170e-5
90.53	2.98902e-5
95.06	1.85366e-5
99.58	3.44085e-5
104.11	2.22439e-5
108.64	1.37866e-5
113.16	2.86158e-5
117.69	1.00000e-13
122.22	1.06585e-5
126.74	4.51829e-6
131.27	1.47134e-5
135.79	1.00000e-13
140.32	2.89634e-6
144.85	1.58719e-5
149.37	1.00000e-13
153.90	1.00000e-13
158.43	1.00000e-13
162.95	9.61584e-6
167.48	5.16707e-5
172.01	1.00000e-13
176.53	1.00000e-13
181.06	2.38658e-5
185.59	2.80365e-5
190.11	2.01585e-5
194.64	1.00000e-13
199.17	1.00000e-13
203.69	1.00000e-13
208.22	5.79267e-6
212.75	1.00000e-13
217.27	1.00000e-13
221.80	1.56402e-5
226.33	1.00000e-13
230.85	1.00000e-13
235.38	1.00000e-13
239.91	1.00000e-13
244.43	1.00000e-13
248.96	1.00000e-13
253.48	1.00000e-13
258.01	1.00000e-13
262.54	1.00000e-13
267.06	1.00000e-13
271.59	1.00000e-13
276.12	1.00000e-13
280.64	1.00000e-13
285.17	1.00000e-13
289.69	1.00000e-13
294.22	3.03536e-5
298.75	1.00000e-13
303.27	1.00000e-13
307.80	1.15853e-5
312.33	1.00000e-13
316.85	1.85366e-6
321.38	1.00000e-13
325.91	3.59146e-6
330.44	1.00000e-13
334.96	1.00000e-13
339.49	1.00000e-13
344.01	1.23963e-5
348.54	1.00000e-13
353.07	1.88841e-5
357.59	1.00000e-13
362.12	1.00000e-13
366.65	1.07744e-5
371.17	1.00000e-13
375.70	1.00000e-13
380.22	1.00000e-13
384.75	1.00000e-13
389.28	1.00000e-13
393.81	1.00000e-13
398.33	1.98109e-5
402.86	4.63414e-6
407.38	1.00000e-13
411.91	1.00000e-13
416.44	1.00000e-13
420.96	1.00000e-13
425.49	1.00000e-13
430.02	1.00000e-13
434.54	1.00000e-13
439.07	1.00000e-13
443.60	1.00000e-13
448.12	1.00000e-13
452.65	1.00000e-13
457.17	1.00000e-13
461.70	1.00000e-13
466.23	4.86585e-6
470.76	1.00000e-13
475.28	1.27439e-6
479.81	1.00000e-13
484.33	1.00000e-13
488.86	1.00000e-13
493.39	2.43292e-6
497.92	1.00000e-13
502.44	1.00000e-13
506.97	8.10974e-7
511.49	1.00000e-13
516.02	4.80792e-5
520.55	1.00000e-13
525.07	1.00000e-13
529.60	1.00000e-13
534.13	1.00000e-13
538.65	1.00000e-13
543.18	1.00000e-13
547.71	1.00000e-13
552.23	1.00000e-13
556.76	1.00000e-13
561.29	1.00000e-13
565.81	2.43292e-6
570.34	1.00000e-13
574.86	1.00000e-13
579.39	1.00000e-13
583.92	1.00000e-13
588.44	1.00000e-13
592.97	1.00000e-13
597.50	3.93902e-6
602.02	1.00000e-13
606.55	1.00000e-13
611.08	1.64512e-5
615.60	2.20122e-6
620.13	1.00000e-13
624.65	1.00000e-13
629.18	1.00000e-13
633.71	6.95121e-7
638.24	1.00000e-13
642.76	1.00000e-13
647.29	1.00000e-13
651.81	1.00000e-13
656.34	8.10974e-6
660.87	6.71950e-6
665.39	2.08536e-6
669.92	1.00000e-13
674.45	1.04268e-6
678.97	1.00000e-13
683.50	1.00000e-13
688.03	1.00000e-13
692.56	1.00000e-13
697.08	1.00000e-13
701.61	1.00000e-13
706.13	1.00000e-13
710.66	1.00000e-13
715.19	1.00000e-13
719.71	4.54146e-5
724.24	2.31707e-6
728.77	9.03657e-6
733.29	1.00000e-13
737.82	1.00000e-13
742.35	1.00000e-13
746.87	1.00000e-13
751.40	2.15487e-5
755.92	7.41462e-6
760.45	2.78048e-6
764.98	7.41462e-6
769.50	1.00000e-13
774.03	1.00000e-13
778.56	1.00000e-13
783.08	1.00000e-13
787.61	1.00000e-13
792.14	1.00000e-13
796.67	1.00000e-13
801.19	1.00000e-13
805.72	1.00000e-13
810.24	3.40609e-5
814.77	1.00793e-5
819.30	1.00000e-13
823.82	1.00000e-13
828.35	1.00000e-13
832.87	9.38413e-6
837.40	1.73780e-6
841.93	1.00000e-13
846.45	1.00000e-13
850.98	1.00000e-13
855.51	1.00000e-13
860.03	1.00000e-13
864.56	1.00000e-13
869.09	1.00000e-13
873.61	1.00000e-13
878.14	1.00000e-13
882.67	1.58719e-5
887.19	1.00000e-13
891.72	1.00000e-13
896.24	3.04695e-5
900.77	1.00000e-13
905.30	1.00000e-13
909.83	1.00000e-13
914.35	1.00000e-13
918.88	1.00000e-13
923.41	1.00000e-13
927.93	6.60365e-6
932.46	1.00000e-13
936.98	1.00000e-13
941.51	1.15853e-7
946.04	1.00000e-13
950.56	9.38413e-6
955.09	1.00000e-13
959.62	1.00000e-13
964.14	1.00000e-13
968.67	1.00000e-13
973.20	1.45975e-5
977.72	1.00000e-13
982.25	1.00000e-13
986.78	1.00000e-13
991.30	1.00000e-13
995.83	1.00000e-13
1000.36	1.00000e-13
1004.88	2.01585e-5
1009.41	6.60365e-6
1013.94	1.00000e-13
1018.46	1.00000e-13
1022.99	1.00000e-13
1027.51	1.00000e-13
1032.04	1.00000e-13
1036.57	1.00000e-13
1041.10	1.00000e-13
1045.62	4.63414e-7
1050.15	1.63353e-5
1054.67	1.00000e-13
1059.20	1.00000e-13
1063.73	1.00000e-13
1068.26	1.00000e-13
1072.78	1.00000e-13
1077.31	1.00000e-13
1081.83	1.00000e-13
1086.36	1.00000e-13
1090.89	1.00000e-13
1095.41	1.00000e-13
1099.94	1.00000e-13
1104.46	1.00000e-13
1108.99	1.00000e-13
1113.52	5.79267e-7
1118.04	1.00000e-13
1122.57	1.00000e-13
1127.10	1.00000e-13
1131.62	1.13536e-5
1136.15	1.00000e-13
1140.68	1.00000e-13
1145.20	1.00000e-13
1149.73	1.00000e-13
1154.26	1.00000e-13
1158.78	1.00000e-13
1163.31	1.00000e-13
1167.84	1.00000e-13
1172.36	1.00000e-13
1176.89	2.06219e-5
1181.42	1.00000e-13
1185.94	1.00000e-13
1190.47	1.00000e-13
1194.99	1.26280e-5
1199.52	1.00000e-13
1204.05	1.00000e-13
1208.57	1.00000e-13
1213.10	1.00000e-13
1217.63	1.00000e-13
1222.15	1.00000e-13
1226.68	2.78048e-6
1231.21	1.00000e-13
1235.74	1.00000e-13
1240.26	1.00000e-13
1244.79	1.00000e-13
1249.31	1.00000e-13
1253.84	1.00000e-13
1258.37	1.00000e-13
1262.89	1.42500e-5
1267.42	2.93109e-5
1271.95	2.44451e-5
1276.47	1.00000e-13
1281.00	3.40030e-4
1285.53	8.20822e-4
1290.05	6.98133e-4
1294.58	4.59127e-4
1299.10	3.59030e-4
1303.63	2.95658e-4
1308.16	2.47463e-4
1312.68	2.78743e-4
1314.30	2.76195e-4

File: M2.txt
Filename	M2
Instrument name
Operator	Gwenael
rundate	2025-02-10
Sample name	M2
[step]
Step 1
Time	Temperature	Weight	Weight	Deriv. Weight
min	°C	mg	%	% / °C
0,03	25,19	1,812	100,036	5,70909e-3
4,71	39,94	1,821	100,557	7,78365e-4
9,46	62,85	1,820	100,503	-4,37309e-3
14,21	86,38	1,818	100,364	-0,0113912
18,96	102,96	1,811	99,995	-0,0211015
23,71	100,77	1,807	99,805	-6,79862e-3
28,46	108,98	1,809	99,899	-1,33893e-3
33,21	131,70	1,808	99,822	-2,88645e-3
37,96	155,55	1,806	99,734	-4,13753e-3
42,71	179,43	1,805	99,649	-6,07319e-3
47,46	203,21	1,801	99,461	-0,0101999
52,21	226,97	1,796	99,160	-0,0153194
56,96	250,77	1,788	98,717	-0,0186661
61,71	274,56	1,779	98,256	-0,0219300
66,46	297,79	1,770	97,741	-0,0299546
71,21	301,56	1,762	97,301	-0,0517307
75,96	299,68	1,757	97,030	0,271931
80,71	299,99	1,753	96,785	0,0770961
85,46	300,05	1,749	96,578	-1,13215
90,21	299,99	1,744	96,324	5,81643
94,96	300,00	1,740	96,081	-15,2255
99,71	300,00	1,735	95,829	-30,3221
104,46	300,00	1,730	95,534	93,2619
109,21	300,00	1,726	95,293	-52,0801
113,96	300,00	1,720	94,993	40,2772
118,71	300,00	1,714	94,665	78,1727
123,46	300,00	1,709	94,343	127,867
128,21	300,00	1,704	94,077	165,750
132,96	300,00	1,698	93,746	94,2511
137,71	300,00	1,692	93,417	-69,1223
142,46	300,00	1,685	93,064	-144,797
147,21	300,00	1,680	92,752	79,2590
151,96	300,00	1,674	92,415	-51,7558
156,71	300,00	1,668	92,089	35,1147
161,46	300,00	1,662	91,745	-81,3207
166,21	300,00	1,656	91,424	-96,3085
170,96	300,00	1,650	91,115	-91,5398
175,71	300,00	1,644	90,797	-49,8808
180,46	300,00	1,639	90,510	151,358
185,21	300,00	1,633	90,182	92,5090
189,96	300,00	1,628	89,894	-69,1190
194,71	300,00	1,623	89,628	-85,4191
199,46	300,00	1,618	89,343	-55,9119
204,21	300,00	1,613	89,079	28,8616
208,96	300,00	1,608	88,813	-79,2873
213,71	300,00	1,604	88,560	48,7424
218,46	300,00	1,599	88,305	26,5818
223,21	300,00	1,595	88,072	-4,95457
227,96	300,00	1,591	87,825	-91,2991
232,71	300,00	1,587	87,634	31,8085
237,46	300,00	1,583	87,396	6,67666
242,21	300,00	1,579	87,179	-142,542
246,96	300,00	1,575	86,973	35,9492
251,71	300,00	1,571	86,735	90,1266
256,46	300,00	1,568	86,556	38,4807
261,21	300,00	1,564	86,378	-35,6341
265,96	300,00	1,561	86,202	52,9384
270,71	300,00	1,558	86,016	-64,6644
275,46	300,00	1,554	85,826	36,1386
280,21	300,00	1,551	85,664	9,27796
284,96	300,00	1,548	85,459	30,6217
289,71	300,00	1,545	85,293	-26,4274
294,46	300,00	1,541	85,093	-13,9916
299,21	300,00	1,539	84,953	-77,9564
303,96	300,00	1,535	84,769	2,35278
308,71	300,00	1,532	84,578	41,7823
313,46	300,00	1,529	84,419	79,6349
318,21	300,00	1,526	84,262	-4,50850
322,96	300,00	1,523	84,081	-71,2502
327,71	300,00	1,520	83,906	2,79739
332,46	300,00	1,517	83,762	66,9981
337,21	300,00	1,514	83,607	-84,3610
341,96	300,00	1,511	83,443	-99,5197
346,71	300,00	1,508	83,295	10,8259
351,46	300,00	1,506	83,143	-38,1743
356,21	300,00	1,503	82,994	-0,736690
360,96	300,00	1,500	82,842	12,1335
365,71	300,00	1,498	82,692	45,4695
370,46	300,00	1,495	82,549	-1,09161
375,21	300,00	1,492	82,395	-31,5178
379,96	300,00	1,489	82,241	-42,1619
384,71	300,00	1,487	82,091	-25,0157
389,46	300,00	1,484	81,949	-0,448855
394,21	300,00	1,482	81,811	50,3795
398,96	300,00	1,479	81,684	19,3724
403,71	300,00	1,477	81,560	-44,5358
408,46	300,00	1,475	81,449	22,9633
413,21	300,00	1,473	81,336	39,9550
417,96	300,00	1,471	81,232	24,3652
422,71	300,00	1,469	81,104	12,7225
427,46	300,00	1,467	80,992	-0,216206
432,21	300,00	1,465	80,883	-49,2636
436,96	300,00	1,463	80,775	4,22862
441,71	300,00	1,461	80,653	-8,37390
446,46	300,00	1,459	80,567	19,3200
451,21	300,00	1,457	80,434	15,3086
455,96	300,00	1,455	80,315	30,1949
460,71	300,00	1,453	80,210	13,8247
465,46	300,00	1,451	80,119	-16,3261
470,21	300,00	1,449	79,991	2,59795
474,96	300,00	1,446	79,851	-5,78128
479,71	300,00	1,444	79,739	3,14693
484,46	300,00	1,442	79,621	-6,40303
489,21	300,00	1,440	79,520	5,97892
493,96	300,00	1,438	79,390	-16,1034
498,71	300,00	1,435	79,217	18,0221
503,46	300,00	1,433	79,117	21,1811
508,21	300,00	1,431	79,012	11,2325
512,96	300,00	1,429	78,891	23,8974
517,71	300,00	1,426	78,760	-28,9038
522,46	300,00	1,424	78,634	-23,9370
527,21	300,00	1,422	78,509	9,29842
531,96	300,00	1,419	78,372	19,7642
536,71	300,00	1,417	78,242	-25,1106
541,46	300,00	1,415	78,125	-7,51283
546,21	300,00	1,412	77,988	10,0358
550,96	300,00	1,410	77,861	14,6672
555,71	300,00	1,408	77,736	-6,73022
560,46	300,00	1,406	77,611	-17,8257
565,21	300,00	1,403	77,480	36,4657
569,96	300,00	1,401	77,364	-14,9908
574,71	300,00	1,399	77,254	-16,5037
579,46	300,00	1,397	77,113	-11,5680
584,21	300,00	1,394	76,999	13,1500
588,96	300,00	1,392	76,888	-27,4567
593,71	300,00	1,390	76,759	55,3034
598,46	300,00	1,388	76,639	-15,5544
603,21	300,00	1,386	76,518	-2,23061
607,96	300,00	1,383	76,388	-25,0316
612,71	300,00	1,382	76,314	40,2752
617,46	300,00	1,380	76,185	38,4986
622,21	300,00	1,378	76,074	-17,7587
626,96	300,00	1,376	75,959	-8,93902
631,71	300,00	1,373	75,830	9,35927
636,46	300,00	1,372	75,735	4,53744
641,21	300,00	1,370	75,623	-31,5100
645,96	300,00	1,368	75,517	15,9046
650,71	300,00	1,366	75,403	26,5327
655,46	300,00	1,364	75,292	-9,53637
660,21	300,00	1,361	75,179	10,6417
664,96	300,00	1,359	75,066	17,5121
669,71	300,00	1,358	74,987	-15,4474
674,46	300,00	1,356	74,871	-34,7195
679,21	300,00	1,354	74,740	-16,3701
683,96	300,00	1,352	74,638	-10,4939
688,71	300,00	1,349	74,506	19,0843
693,46	300,00	1,348	74,419	7,25630
698,21	300,00	1,346	74,313	3,79683
702,96	300,00	1,344	74,204	17,7612
707,71	300,00	1,341	74,062	-5,23376
712,46	300,00	1,340	73,986	-16,4450
717,21	300,00	1,337	73,851	0,791103
721,96	300,00	1,336	73,794	3,94892
726,71	300,00	1,334	73,672	-19,7063
731,46	300,00	1,332	73,545	10,6197
736,21	300,00	1,330	73,442	2,61080
740,96	300,00	1,328	73,336	-29,2760
745,71	300,00	1,326	73,244	2,47257
750,46	300,00	1,325	73,138	20,2436
755,21	300,00	1,323	73,038	9,55907
759,96	300,00	1,321	72,930	4,40540
764,71	300,00	1,319	72,837	-4,96154
769,46	300,00	1,317	72,727	-31,5055
774,21	300,00	1,315	72,636	-39,6723
778,96	300,00	1,313	72,517	15,9371
783,71	300,00	1,312	72,422	13,1344
788,46	300,00	1,310	72,322	-10,9618
793,21	300,00	1,308	72,213	-5,33674
797,96	300,00	1,306	72,133	20,4136
802,71	300,00	1,304	72,032	15,1788
807,46	300,00	1,303	71,923	-1,29429
812,21	300,00	1,300	71,802	-10,0229
816,96	300,00	1,299	71,736	16,3942
821,71	300,00	1,297	71,619	40,1523
826,46	300,00	1,295	71,513	25,2053
831,21	300,00	1,294	71,429	-20,8907
835,96	300,00	1,292	71,329	-41,7846
840,71	300,00	1,290	71,224	-6,40379
845,46	300,00	1,288	71,111	15,2299
850,21	300,00	1,286	71,030	37,8692
854,96	300,00	1,285	70,942	-17,4644
859,71	300,00	1,283	70,825	-18,7592
864,46	300,00	1,281	70,741	-34,6441
869,21	300,00	1,279	70,639	-25,7696
873,96	300,00	1,278	70,552	33,2920
878,71	300,00	1,276	70,449	-41,2358
883,46	300,00	1,275	70,383	-18,1542
888,21	300,00	1,273	70,318	29,5610
892,96	300,00	1,272	70,224	22,8420
897,71	300,00	1,270	70,152	-25,2236
902,46	300,00	1,269	70,055	0,727278
907,21	300,00	1,268	69,999	30,9471
911,96	300,00	1,267	69,951	-23,8389
916,71	300,00	1,265	69,833	-4,09219
921,46	300,00	1,264	69,789	35,9578
926,21	300,00	1,262	69,702	-4,19475
930,96	300,00	1,261	69,630	-6,27406
935,71	300,00	1,260	69,549	-2,73064
940,46	300,00	1,259	69,515	11,1856
945,21	300,00	1,257	69,397	-14,7449
949,96	300,00	1,255	69,319	11,5667
954,71	300,00	1,254	69,240	9,45715
959,46	300,00	1,253	69,200	-31,7228
964,21	300,00	1,251	69,072	-6,18610
968,96	300,00	1,249	68,980	38,3469
973,71	300,00	1,248	68,896	31,6796
978,46	300,00	1,246	68,811	-21,0294
983,21	300,00	1,245	68,735	-9,53546
987,96	300,00	1,243	68,631	16,5692
992,71	300,00	1,242	68,556	24,2265
997,46	300,00	1,240	68,466	7,33059
1002,21	300,00	1,238	68,370	13,1995
1006,96	300,00	1,237	68,300	-32,3128
1011,71	300,00	1,235	68,197	4,04154
1016,46	300,00	1,234	68,112	-35,1767
1021,21	300,00	1,232	68,015	8,82066
1025,96	300,00	1,230	67,910	34,3002
1030,71	300,00	1,229	67,840	1,73515
1035,46	300,00	1,226	67,712	-31,5085
1040,21	300,00	1,225	67,632	21,5954
1044,96	300,00	1,223	67,556	46,4937
1049,71	300,00	1,221	67,422	31,7837
1054,46	300,00	1,220	67,352	47,5256
1059,21	300,00	1,218	67,257	-21,0688
1063,96	300,00	1,216	67,133	-49,9351
1068,71	300,00	1,214	67,052	-24,0129
1073,46	300,00	1,212	66,946	-3,28860
1078,21	300,00	1,211	66,861	12,0725
1082,96	300,00	1,208	66,730	37,7026
1087,71	300,00	1,207	66,643	44,3445
1092,46	300,00	1,205	66,551	-48,4731
1097,21	300,00	1,203	66,433	-12,2628
1101,96	300,00	1,202	66,368	39,9238
1106,71	300,00	1,200	66,258	11,5545
1111,46	300,00	1,198	66,178	-32,4126
1116,21	300,00	1,197	66,071	-24,4745
1120,96	300,00	1,194	65,915	64,8387
1125,71	300,00	1,193	65,869	35,4730
1130,46	300,00	1,191	65,788	-39,2931
1135,21	300,00	1,189	65,679	-59,5180
1139,96	300,00	1,188	65,579	11,5137
1144,71	300,00	1,186	65,477	-12,5093
1149,46	300,00	1,184	65,372	30,7111
1154,21	300,00	1,182	65,293	0,374851
1158,96	300,00	1,180	65,172	-11,2574
1163,71	300,00	1,178	65,071	34,2996
1168,46	300,00	1,177	64,978	0,306759
1173,21	300,00	1,175	64,865	-23,6924
1177,96	300,00	1,173	64,796	-23,2016
1182,71	300,00	1,171	64,683	-9,82338
1187,46	300,00	1,169	64,577	-17,5693
1192,21	300,00	1,168	64,493	8,72206
1196,96	300,00	1,166	64,406	23,0150
1201,71	300,00	1,165	64,335	31,6092
1206,46	300,00	1,164	64,263	22,3120
1211,21	300,00	1,162	64,180	-37,9816
1215,96	300,00	1,161	64,093	-28,9252
1220,71	300,00	1,159	64,005	0,650700
1225,46	300,00	1,158	63,919	-14,8262
1230,21	300,00	1,156	63,833	-18,1953
1234,96	300,00	1,154	63,728	10,0924
1239,71	300,00	1,153	63,678	23,0726
1244,46	300,00	1,152	63,586	-0,885129
1249,21	300,00	1,150	63,527	34,9441
1253,96	300,00	1,149	63,451	23,4739
1258,71	300,00	1,148	63,368	-0,0114307
1263,46	300,00	1,146	63,289	-0,0112926
1268,21	320,55	1,145	63,232	-0,0754716
1272,96	366,76	1,112	61,401	-0,360549
1277,71	414,95	0,671	37,056	-0,539865
1282,46	462,56	-0,029	-1,621	-0,384084
1287,21	510,23	-0,032	-1,791	-0,0508527
1291,96	557,85	-0,033	-1,821	-5,77091e-4
1296,71	605,45	-0,034	-1,885	-1,61209e-4
1301,46	653,04	-0,034	-1,852	4,36162e-4
1306,21	700,62	-0,034	-1,863	1,20866e-3
1310,96	748,19	-0,031	-1,724	1,71610e-3
1314,79	786,57	-0,029	-1,628	2,10149e-3