Folder: data-visualizer/data/TGA/005d-L_M

File: 005h-A3-temp_104 AMU_XIC
Time	Ion Current
min	mA
0.00	1.90000e-5
3.88	9.26828e-6
7.76	2.42134e-5
11.64	1.00000e-13
15.52	1.85366e-6
19.39	3.05853e-5
23.28	1.00000e-13
27.16	1.15853e-6
31.04	1.05427e-5
34.92	1.04268e-5
38.79	5.79267e-6
42.67	9.15242e-6
46.56	6.95121e-6
50.43	8.10974e-6
54.32	1.00000e-13
58.20	1.00000e-13
62.08	1.00000e-13
65.96	2.78048e-6
69.83	8.10974e-7
73.71	1.00000e-13
77.59	1.00000e-13
81.47	1.00000e-13
85.36	1.00000e-13
89.24	6.83536e-6
93.11	5.44511e-6
96.99	1.00000e-13
100.87	1.00000e-13
104.76	1.00000e-13
108.64	6.83536e-6
112.51	1.00000e-13
116.39	1.00000e-13
120.27	1.00000e-13
124.15	1.00000e-13
128.03	1.00000e-13
131.91	1.00000e-13
135.79	2.54878e-6
139.67	3.00061e-5
143.55	1.00000e-13
147.43	1.00000e-13
151.31	1.32073e-5
155.19	7.29877e-6
159.07	1.00000e-13
162.95	1.00000e-13
166.83	1.00000e-13
170.71	1.00000e-13
174.59	1.00000e-13
178.47	1.00000e-13
182.35	1.00000e-13
186.23	1.00000e-13
190.11	1.00000e-13
193.99	1.00000e-13
197.87	1.00000e-13
201.75	1.00000e-13
205.63	1.00000e-13
209.51	1.00000e-13
213.39	1.00000e-13
217.27	2.78048e-6
221.15	1.00000e-13
225.03	1.00000e-13
228.91	1.00000e-13
232.79	1.00000e-13
236.67	1.00000e-13
240.55	1.00000e-13
244.43	1.00000e-13
248.31	1.00000e-13
252.19	1.00000e-13
256.07	1.00000e-13
259.95	1.00000e-13
263.83	1.00000e-13
267.71	1.00000e-13
271.59	1.00000e-13
275.47	1.00000e-13
279.35	1.00000e-13
283.23	1.00000e-13
287.11	1.00000e-13
290.99	6.95121e-6
294.87	1.01951e-5
298.75	1.00000e-13
302.63	1.11219e-5
306.51	1.00000e-13
310.39	1.00000e-13
314.26	8.10974e-6
318.15	1.00000e-13
322.02	1.00000e-13
325.91	1.00000e-13
329.78	1.00000e-13
333.67	1.00000e-13
337.54	1.00000e-13
341.42	1.00000e-13
345.30	1.00000e-13
349.19	8.34145e-6
353.06	1.00000e-13
356.94	1.00000e-13
360.82	6.95121e-7
364.70	1.00000e-13
368.59	1.00000e-13
372.47	1.00000e-13
376.34	1.00000e-13
380.22	1.00000e-13
384.10	1.00000e-13
387.98	1.00000e-13
391.87	1.00000e-13
395.74	1.00000e-13
399.63	3.47560e-7
403.50	1.00000e-13
407.38	1.00000e-13
411.26	1.00000e-13
415.14	4.63414e-7
419.02	1.00000e-13
422.90	1.00000e-13
426.78	1.00000e-13
430.66	1.00000e-13
434.54	2.16646e-5
438.42	1.00000e-13
442.30	1.00000e-13
446.18	1.00000e-13
450.06	1.00000e-13
453.94	2.42134e-5
457.82	1.00000e-13
461.70	1.00000e-13
465.58	1.00000e-13
469.46	1.00000e-13
473.34	1.00000e-13
477.22	1.00000e-13
481.10	1.00000e-13
484.98	1.00000e-13
488.86	1.00000e-13
492.74	1.00000e-13
496.62	1.00000e-13
500.50	1.00000e-13
504.38	1.00000e-13
508.26	1.00000e-13
512.14	2.31707e-7
516.02	1.00000e-13
519.90	1.00000e-13
523.78	1.00000e-13
527.66	1.00000e-13
531.54	1.00000e-13
535.42	1.00000e-13
539.30	1.00000e-13
543.18	1.00000e-13
547.06	1.00000e-13
550.94	1.00000e-13
554.82	1.00000e-13
558.70	1.00000e-13
562.58	1.00000e-13
566.46	1.00000e-13
570.34	1.00000e-13
574.22	1.00000e-13
578.10	1.00000e-13
581.98	1.04268e-6
585.86	1.00000e-13
589.73	1.00000e-13
593.62	1.00000e-13
597.50	1.00000e-13
601.38	1.00000e-13
605.25	1.00000e-13
609.13	1.00000e-13
613.02	1.00000e-13
616.89	1.00000e-13
620.77	1.00000e-13
624.65	1.00000e-13
628.53	1.15853e-6
632.42	1.00000e-13
636.29	1.00000e-13
640.17	1.00000e-13
644.05	1.15853e-5
647.93	1.00000e-13
651.82	1.00000e-13
655.69	1.00000e-13
659.57	1.00000e-13
663.45	1.00000e-13
667.33	1.00000e-13
671.21	1.00000e-13
675.09	1.00000e-13
678.97	1.00000e-13
682.85	1.00000e-13
686.73	1.00000e-13
690.61	1.00000e-13
694.49	2.24756e-5
698.37	1.00000e-13
702.25	1.00000e-13
706.13	1.00000e-13
710.01	1.00000e-13
713.89	1.00000e-13
717.77	4.28658e-6
721.65	1.00000e-13
725.53	1.00000e-13
729.41	1.00000e-13
733.29	1.00000e-13
737.17	1.00000e-13
741.05	1.00000e-13
744.93	1.00000e-13
748.81	1.45975e-5
752.69	1.00000e-13
756.57	1.00000e-13
760.45	1.00000e-13
764.33	1.00000e-13
768.21	1.00000e-13
772.09	1.00000e-13
775.97	1.00000e-13
779.85	5.79267e-7
783.73	1.00000e-13
787.61	1.00000e-13
791.49	1.00000e-13
795.37	1.00000e-13
799.25	1.00000e-13
803.13	1.00000e-13
807.01	1.00000e-13
810.89	1.00000e-13
814.77	1.00000e-13
818.65	1.00000e-13
822.53	1.00000e-13
826.41	1.00000e-13
830.29	1.00000e-13
834.17	1.00000e-13
838.05	1.00000e-13
841.93	1.00000e-13
845.81	1.00000e-13
849.69	1.00000e-13
853.57	1.00000e-13
857.44	1.00000e-13
861.32	1.00000e-13
865.20	1.00000e-13
869.09	1.00000e-13
872.96	1.00000e-13
876.85	1.00000e-13
880.72	1.00000e-13
884.61	1.00000e-13
888.49	1.00000e-13
892.36	1.00000e-13
896.24	1.00000e-13
900.12	1.00000e-13
904.01	1.00000e-13
907.89	8.45730e-6
911.76	1.00000e-13
915.64	1.00000e-13
919.53	1.00000e-13
923.41	1.00000e-13
927.28	1.00000e-13
931.16	1.00000e-13
935.04	1.00000e-13
938.92	1.00000e-13
942.80	1.00000e-13
946.68	1.00000e-13
950.56	1.00000e-13
954.44	1.00000e-13
958.32	1.00000e-13
962.20	1.00000e-13
966.08	1.00000e-13
969.96	1.00000e-13
973.84	1.00000e-13
977.72	1.00000e-13
981.60	1.00000e-13
985.48	1.00000e-13
989.36	1.00000e-13
993.24	1.00000e-13
997.12	1.00000e-13
1001.00	1.00000e-13
1004.88	1.00000e-13
1008.76	1.00000e-13
1012.64	1.00000e-13
1016.52	1.00000e-13
1020.40	1.00000e-13
1024.28	4.63414e-7
1028.16	1.00000e-13
1032.04	1.00000e-13
1035.92	1.00000e-13
1039.80	1.00000e-13
1043.68	2.54878e-6
1047.56	1.00000e-13
1051.44	1.00000e-13
1055.32	1.00000e-13
1059.20	1.00000e-13
1063.08	1.00000e-13
1066.96	1.00000e-13
1070.84	1.00000e-13
1074.72	1.00000e-13
1078.60	1.00000e-13
1082.48	1.00000e-13
1086.36	1.00000e-13
1090.24	1.00000e-13
1094.12	1.00000e-13
1098.00	1.00000e-13
1101.88	1.00000e-13
1105.76	1.00000e-13
1109.64	1.00000e-13
1113.52	1.00000e-13
1117.40	1.00000e-13
1121.28	1.00000e-13
1125.16	1.00000e-13
1129.04	1.00000e-13
1132.91	1.00000e-13
1136.79	1.00000e-13
1140.68	1.00000e-13
1144.55	1.00000e-13
1148.44	1.00000e-13
1152.31	1.00000e-13
1153.61	1.00000e-13

File: 005h-A3.txt
Filename	A3
Instrument name
Operator	Gwenael
rundate	2025-02-24
Sample name	A3
[step]
Step 1
Time	Temperature	Weight	Weight	Deriv. Weight
min	°C	mg	%	% / °C
0.01	26.51	2.223	100.023	-1.39564e-3
4.71	40.97	2.228	100.252	-3.75116e-3
9.46	64.06	2.226	100.163	-0.0212522
14.21	87.48	2.216	99.727	-0.0655939
18.96	103.00	2.160	97.222	-0.143012
23.71	100.64	2.132	95.936	-0.0988417
28.46	110.11	2.120	95.422	-0.0353315
33.21	132.86	2.106	94.761	-0.0214950
37.96	156.75	2.097	94.365	-0.0109372
42.71	180.62	2.095	94.271	-4.86649e-3
47.46	204.38	2.093	94.189	-3.00021e-3
52.21	228.15	2.091	94.105	-3.82845e-3
56.96	251.95	2.089	94.016	-4.67054e-3
61.71	275.74	2.086	93.888	-7.71432e-3
66.46	298.50	2.081	93.669	-0.0144745
71.21	301.45	2.075	93.392	-0.0327419
75.96	299.67	2.070	93.165	0.234538
80.71	300.00	2.065	92.943	-0.0179985
85.46	300.04	2.060	92.710	-1.18503
90.21	299.99	2.055	92.472	6.49021
94.96	300.00	2.049	92.222	-23.0082
99.71	300.00	2.044	91.979	-23.8002
104.46	300.00	2.039	91.749	132.456
109.21	300.00	2.033	91.476	-3.37981
113.96	300.00	2.027	91.231	-15.1319
118.71	300.00	2.021	90.974	70.7513
123.46	300.00	2.016	90.721	135.124
128.21	300.00	2.010	90.466	-60.0351
132.96	300.00	2.005	90.234	-86.0374
137.71	300.00	1.999	89.974	-41.3974
142.46	300.00	1.994	89.744	9.75841
147.21	300.00	1.989	89.505	23.3256
151.96	300.00	1.983	89.264	-31.5182
156.71	300.00	1.978	89.021	37.8455
161.46	300.00	1.973	88.809	-26.2208
166.21	300.00	1.968	88.577	69.0856
170.96	300.00	1.963	88.358	32.9041
175.71	300.00	1.958	88.101	-6.44282
180.46	300.00	1.953	87.909	-94.7655
185.21	300.00	1.949	87.710	-64.5820
189.96	300.00	1.944	87.469	61.6271
194.71	300.00	1.938	87.241	90.5421
199.46	300.00	1.934	87.058	64.5486
204.21	300.00	1.929	86.835	-103.845
208.96	300.00	1.925	86.629	-72.9114
213.71	300.00	1.921	86.444	-37.1933
218.46	300.00	1.916	86.241	19.7037
223.21	300.00	1.912	86.042	-81.3825
227.96	300.00	1.908	85.848	74.7712
232.71	300.00	1.904	85.693	101.548
237.46	300.00	1.900	85.505	39.0211
242.21	300.00	1.896	85.328	-94.7961
246.96	300.00	1.892	85.152	-56.0104
251.71	300.00	1.889	85.001	92.8766
256.46	300.00	1.885	84.821	-36.3930
261.21	300.00	1.881	84.655	-59.5388
265.96	300.00	1.877	84.492	9.88596
270.71	300.00	1.874	84.338	84.4632
275.46	300.00	1.870	84.181	55.6146
280.21	300.00	1.867	84.023	-9.48862
284.96	300.00	1.864	83.881	-62.6358
289.71	300.00	1.861	83.736	-29.5975
294.46	300.00	1.858	83.597	29.9834
299.21	300.00	1.854	83.453	16.4434
303.96	300.00	1.851	83.323	-22.4758
308.71	300.00	1.848	83.182	54.5529
313.46	300.00	1.845	83.050	0.874234
318.21	300.00	1.843	82.923	-20.8803
322.96	300.00	1.839	82.782	-9.62985
327.71	300.00	1.837	82.667	-32.6951
332.46	300.00	1.834	82.548	-17.3783
337.21	300.00	1.831	82.420	26.6147
341.96	300.00	1.829	82.311	-31.0142
346.71	300.00	1.826	82.181	37.5852
351.46	300.00	1.823	82.034	10.7047
356.21	300.00	1.821	81.951	-17.0159
360.96	300.00	1.818	81.824	-24.4780
365.71	300.00	1.816	81.731	52.0056
370.46	300.00	1.813	81.595	10.1819
375.21	300.00	1.811	81.496	-33.3006
379.96	300.00	1.809	81.392	-9.01317
384.71	300.00	1.805	81.253	33.7120
389.46	300.00	1.803	81.134	24.4941
394.21	300.00	1.800	81.019	-33.4318
398.96	300.00	1.799	80.952	-3.05069
403.71	300.00	1.795	80.799	-3.61185
408.46	300.00	1.794	80.727	4.85357
413.21	300.00	1.792	80.632	4.70298
417.96	300.00	1.790	80.544	35.6355
422.71	300.00	1.788	80.458	-12.4609
427.46	300.00	1.785	80.347	-20.1571
432.21	300.00	1.783	80.240	24.3858
436.96	300.00	1.781	80.137	-23.0859
441.71	300.00	1.779	80.042	-27.1935
446.46	300.00	1.777	79.956	17.8237
451.21	300.00	1.774	79.860	40.9216
455.96	300.00	1.773	79.771	36.2166
460.71	300.00	1.770	79.676	-36.6356
465.46	300.00	1.768	79.588	12.2620
470.21	300.00	1.766	79.495	11.9923
474.96	300.00	1.764	79.404	-25.9749
479.71	300.00	1.762	79.314	-35.2912
484.46	300.00	1.760	79.225	24.7930
489.21	300.00	1.758	79.132	45.2085
493.96	300.00	1.756	79.028	-5.82171
498.71	300.00	1.754	78.952	-4.19842
503.46	300.00	1.753	78.876	6.71891
508.21	300.00	1.751	78.784	14.2741
512.96	300.00	1.749	78.691	-35.1069
517.71	300.00	1.747	78.605	-23.3161
522.46	300.00	1.745	78.515	28.0789
527.21	300.00	1.742	78.420	9.12285
531.96	300.00	1.740	78.327	-28.9510
536.71	300.00	1.739	78.283	-11.1277
541.46	300.00	1.737	78.167	22.8470
546.21	300.00	1.736	78.111	-12.4975
550.96	300.00	1.733	78.004	12.1183
555.71	300.00	1.732	77.928	16.3530
560.46	300.00	1.730	77.844	-1.20480
565.21	300.00	1.728	77.757	-19.3005
569.96	300.00	1.726	77.679	6.48706
574.71	300.00	1.725	77.630	7.45312
579.46	300.00	1.723	77.538	6.27129
584.21	300.00	1.722	77.478	-1.72443
588.96	300.00	1.720	77.394	-23.3847
593.71	300.00	1.718	77.299	6.15225
598.46	300.00	1.717	77.250	30.3679
603.21	300.00	1.715	77.167	25.3711
607.96	300.00	1.713	77.098	10.6598
612.71	300.00	1.711	77.016	9.96723
617.46	300.00	1.710	76.954	8.93159
622.21	300.00	1.708	76.862	5.62870
626.96	300.00	1.706	76.797	-39.7746
631.71	300.00	1.705	76.730	-30.0474
636.46	300.00	1.703	76.649	12.8251
641.21	300.00	1.701	76.572	-2.02516
645.96	300.00	1.700	76.494	-24.5786
650.71	300.00	1.698	76.422	18.6929
655.46	300.00	1.696	76.345	41.3506
660.21	300.00	1.695	76.267	16.5808
664.96	300.00	1.693	76.209	-37.4177
669.71	300.00	1.692	76.130	-27.4276
674.46	300.00	1.690	76.052	20.3809
679.21	300.00	1.688	75.971	19.3938
683.96	300.00	1.686	75.895	-17.0975
688.71	300.00	1.685	75.815	19.6982
693.46	300.00	1.683	75.749	22.4202
698.21	300.00	1.682	75.680	-21.9389
702.96	300.00	1.680	75.596	-26.8965
707.71	300.00	1.678	75.531	23.3772
712.46	300.00	1.677	75.474	9.07007
717.21	300.00	1.675	75.379	-15.7696
721.96	300.00	1.673	75.305	6.34343
726.71	300.00	1.672	75.231	15.9786
731.46	300.00	1.670	75.169	-17.4906
736.21	300.00	1.669	75.110	-14.7325
740.96	300.00	1.667	75.027	4.35803
745.71	300.00	1.666	74.957	9.46303
750.46	300.00	1.664	74.898	33.3328
755.21	300.00	1.663	74.821	-1.31792
759.96	300.00	1.661	74.762	-19.6358
764.71	300.00	1.660	74.706	-8.25162
769.46	300.00	1.658	74.626	3.58197
774.21	300.00	1.657	74.565	-13.4207
778.96	300.00	1.655	74.491	13.4169
783.71	300.00	1.654	74.434	1.60002
788.46	300.00	1.652	74.357	7.78463
793.21	300.00	1.651	74.323	14.8783
797.96	300.00	1.650	74.243	18.0360
802.71	300.00	1.648	74.161	32.7372
807.46	300.00	1.647	74.112	-15.0173
812.21	300.00	1.646	74.080	-21.9549
816.96	300.00	1.644	73.994	-22.9374
821.71	300.00	1.642	73.901	-3.01509
826.46	300.00	1.641	73.837	-11.7929
831.21	300.00	1.639	73.753	10.5808
835.96	300.00	1.637	73.679	-37.4825
840.71	300.00	1.636	73.613	26.7747
845.46	300.00	1.635	73.560	33.9676
850.21	300.00	1.633	73.504	2.78618
854.96	300.00	1.632	73.438	-24.1228
859.71	300.00	1.629	73.327	-12.3461
864.46	300.00	1.629	73.312	10.9647
869.21	300.00	1.628	73.249	7.45646
873.96	300.00	1.626	73.180	21.0614
878.71	300.00	1.625	73.133	5.40560
883.46	300.00	1.623	73.055	-14.7769
888.21	300.00	1.622	73.012	22.9879
892.96	300.00	1.621	72.945	23.8345
897.71	300.00	1.619	72.883	24.5605
902.46	300.00	1.619	72.840	1.20034
907.21	300.00	1.618	72.806	-26.9288
911.96	300.00	1.616	72.710	-31.4704
916.71	300.00	1.614	72.643	-8.97382
921.46	300.00	1.613	72.574	-5.76842
926.21	300.00	1.611	72.502	11.0383
930.96	300.00	1.610	72.460	-20.8292
935.71	300.00	1.608	72.383	12.7340
940.46	300.00	1.608	72.346	2.74043
945.21	300.00	1.606	72.272	-7.15948
949.96	300.00	1.604	72.178	-10.8843
954.71	300.00	1.604	72.202	31.8888
959.46	300.00	1.602	72.087	21.4202
964.21	300.00	1.601	72.049	-39.2639
968.96	300.00	1.600	71.994	9.52670
973.71	300.00	1.599	71.942	21.4539
978.46	300.00	1.597	71.877	-2.62626
983.21	300.00	1.595	71.804	-30.6153
987.96	300.00	1.594	71.719	-4.20802
992.71	300.00	1.593	71.697	30.2736
997.46	300.00	1.591	71.615	30.0703
1002.21	300.00	1.590	71.555	21.1902
1006.96	300.00	1.589	71.496	0.177688
1011.71	300.00	1.587	71.436	-26.8978
1016.46	300.00	1.586	71.378	-21.2638
1021.21	300.00	1.585	71.313	-12.4542
1025.96	300.00	1.583	71.234	-1.15616
1030.71	300.00	1.581	71.167	-5.89812
1035.46	300.00	1.580	71.128	16.4864
1040.21	300.00	1.579	71.067	25.7173
1044.96	300.00	1.578	71.014	27.3662
1049.71	300.00	1.577	70.957	30.1363
1054.46	300.00	1.576	70.907	-9.59333
1059.21	300.00	1.574	70.852	-24.5090
1063.96	300.00	1.573	70.802	2.21676
1068.71	300.00	1.572	70.747	13.7013
1073.46	300.00	1.571	70.682	-8.27110
1078.21	300.00	1.569	70.627	-24.2586
1082.96	300.00	1.568	70.568	14.5645
1087.71	300.00	1.567	70.513	-8.10162
1092.46	300.00	1.566	70.455	11.5967
1097.21	300.00	1.564	70.404	-18.6966
1101.96	300.00	1.564	70.384	2.50491
1106.71	300.00	1.562	70.303	16.2385
1111.46	300.00	1.561	70.250	5.08544
1116.21	300.00	1.560	70.199	3.65305
1120.96	300.00	1.559	70.149	-5.60304
1125.71	300.00	1.557	70.094	-6.72621
1130.46	300.00	1.556	70.023	-10.3499
1135.21	300.00	1.555	70.003	14.0228
1139.96	300.00	1.554	69.944	-5.66598
1144.71	300.00	1.553	69.883	0.513225
1149.46	300.00	1.552	69.840	7.27693
1154.21	300.00	1.551	69.819	6.23467
1158.96	300.00	1.550	69.758	7.12153
1163.71	300.00	1.548	69.689	-18.2958
1168.46	300.00	1.548	69.656	-20.2026
1173.21	300.00	1.546	69.587	11.0909
1177.96	300.00	1.545	69.551	4.68354
1182.71	300.00	1.544	69.498	-4.12049
1187.46	300.00	1.543	69.443	-14.5956
1192.21	300.00	1.542	69.400	16.7484
1196.96	300.00	1.541	69.336	4.74375
1201.71	300.00	1.540	69.293	9.85042
1206.46	300.00	1.538	69.224	18.5803
1211.21	300.00	1.537	69.186	3.33510
1215.96	300.00	1.536	69.132	-24.7756
1220.71	300.00	1.535	69.084	-15.8959
1225.46	300.00	1.534	69.051	15.7905
1230.21	300.00	1.533	68.971	14.8523
1234.96	300.00	1.532	68.928	-2.58387
1239.71	300.00	1.531	68.879	-2.02022
1244.46	300.00	1.529	68.823	-0.613669
1249.21	300.00	1.528	68.772	5.86346
1253.96	300.00	1.527	68.725	16.5111
1258.71	300.00	1.526	68.673	-5.40369e-3
1263.46	300.00	1.525	68.620	-8.42154e-3
1268.21	322.76	1.524	68.585	-0.0654853
1272.96	369.23	1.490	67.042	-0.380470
1277.71	417.38	0.935	42.060	-0.581015
1282.46	464.99	-0.009	-0.388	-0.418401
1287.21	512.66	-0.020	-0.884	-0.0500043
1291.96	560.28	-0.020	-0.882	1.20058e-4
1296.71	607.88	-0.019	-0.858	8.54014e-4
1301.46	655.46	-0.018	-0.804	1.44412e-3
1306.21	703.05	-0.016	-0.714	1.75266e-3
1310.96	750.61	-0.014	-0.626	1.80042e-3
1314.54	786.49	-0.012	-0.556	1.86668e-3

File: A1000_000001 -temp_104 AMU_XIC
Time	Ion Current
min	mA
0.00	1.00000e-13
4.52	1.00000e-13
9.05	1.00000e-13
13.58	1.30914e-5
18.10	1.00000e-13
22.63	1.00000e-13
27.16	1.00000e-13
31.68	1.00000e-13
36.21	1.00000e-13
40.74	1.00000e-13
45.27	1.00000e-13
49.79	1.00000e-13
54.32	1.00000e-13
58.84	3.47560e-7
63.37	3.02378e-5
67.90	7.10182e-5
72.42	1.40878e-4
76.95	9.09450e-5
81.48	4.76158e-5
86.00	1.27786e-4
90.53	1.42152e-4
95.06	9.56950e-5
99.58	6.01280e-5
104.11	4.05487e-5
108.63	1.14927e-4
113.16	6.32560e-5
117.69	1.34042e-4
122.21	6.15182e-5
126.74	6.11706e-5
131.27	6.24450e-5
135.80	4.39085e-5
140.32	3.57987e-5
144.85	4.68048e-5
149.37	4.77316e-5
153.90	2.56036e-5
158.42	1.85366e-5
162.96	2.22439e-5
167.48	1.66829e-5
172.00	2.72256e-5
176.53	9.61584e-6
181.06	1.00000e-13
185.58	5.61889e-5
190.11	4.22865e-5
194.64	1.87683e-5
199.17	2.38658e-5
203.69	2.66463e-5
208.22	1.34390e-5
212.74	1.00000e-13
217.27	6.14023e-6
221.80	1.59878e-5
226.32	1.00000e-13
230.85	8.10974e-6
235.38	7.18292e-6
239.90	1.19329e-5
244.43	1.00000e-13
248.96	5.78109e-5
253.48	1.00000e-13
258.01	1.65670e-5
262.54	7.87804e-6
267.06	1.00000e-13
271.59	1.00000e-13
276.11	1.00000e-13
280.64	2.56036e-5
285.17	1.00000e-13
289.70	1.00000e-13
294.22	1.00000e-13
298.75	1.00000e-13
303.27	1.00000e-13
307.80	1.00000e-13
312.33	1.00000e-13
316.85	1.00000e-13
321.38	1.00000e-13
325.91	1.00000e-13
330.43	3.20914e-5
334.96	1.00000e-13
339.49	1.00000e-13
344.01	1.00000e-13
348.54	1.00000e-13
353.07	1.00000e-13
357.59	1.00000e-13
362.12	1.00000e-13
366.65	1.00000e-13
371.17	1.00000e-13
375.70	1.00000e-13
380.22	3.38292e-5
384.75	1.00000e-13
389.28	1.00000e-13
393.80	1.00000e-13
398.33	1.00000e-13
402.86	1.00000e-13
407.38	1.00000e-13
411.91	1.00000e-13
416.44	1.00000e-13
420.96	1.00000e-13
425.49	1.00000e-13
430.02	1.00000e-13
434.54	1.00000e-13
439.07	1.00000e-13
443.60	1.00000e-13
448.13	1.00000e-13
452.65	1.00000e-13
457.18	1.00000e-13
461.70	8.68901e-6
466.23	1.00000e-13
470.76	1.00000e-13
475.28	1.00000e-13
479.81	1.00000e-13
484.34	1.00000e-13
488.86	1.00000e-13
493.39	5.79267e-7
497.92	1.00000e-13
502.44	1.00000e-13
506.97	1.00000e-13
511.49	1.00000e-13
516.02	8.10974e-6
520.55	1.00000e-13
525.07	2.20122e-6
529.60	1.00000e-13
534.13	1.00000e-13
538.66	1.00000e-13
543.18	1.00000e-13
547.71	1.00000e-13
552.23	1.00000e-13
556.76	1.00000e-13
561.29	1.00000e-13
565.82	1.00000e-13
570.34	1.00000e-13
574.87	1.00000e-13
579.39	1.00000e-13
583.92	1.00000e-13
588.45	1.00000e-13
592.97	1.00000e-13
597.50	1.00000e-13
602.03	1.00000e-13
606.55	1.00000e-13
611.08	1.00000e-13
615.61	1.00000e-13
620.14	1.00000e-13
624.66	1.00000e-13
629.19	1.00000e-13
633.71	1.00000e-13
638.24	1.00000e-13
642.77	1.00000e-13
647.29	1.00000e-13
651.82	1.00000e-13
656.34	1.00000e-13
660.87	1.00000e-13
665.40	1.00000e-13
669.92	1.00000e-13
674.45	1.00000e-13
678.98	1.00000e-13
683.50	1.00000e-13
688.03	1.00000e-13
692.56	1.00000e-13
697.08	1.00000e-13
701.61	1.00000e-13
706.14	1.00000e-13
710.66	1.00000e-13
715.19	1.00000e-13
719.72	1.00000e-13
724.24	1.00000e-13
728.77	1.00000e-13
733.30	1.00000e-13
737.82	1.00000e-13
742.35	1.00000e-13
746.88	1.00000e-13
751.40	1.00000e-13
755.93	1.00000e-13
760.45	1.00000e-13
764.98	1.00000e-13
769.51	1.00000e-13
774.03	1.00000e-13
778.56	1.00000e-13
783.09	1.00000e-13
787.61	1.00000e-13
792.14	1.00000e-13
796.67	1.00000e-13
801.19	1.17012e-5
805.72	1.00000e-13
810.25	1.00000e-13
814.77	1.00000e-13
819.30	1.00000e-13
823.83	1.00000e-13
828.35	1.00000e-13
832.88	1.00000e-13
837.41	1.00000e-13
841.93	1.00000e-13
846.46	1.00000e-13
850.98	1.00000e-13
855.51	1.00000e-13
860.04	1.00000e-13
864.57	1.00000e-13
869.09	1.00000e-13
873.62	1.00000e-13
878.15	1.04268e-6
882.67	1.00000e-13
887.20	1.00000e-13
891.73	9.15242e-6
896.25	1.00000e-13
900.78	1.00000e-13
905.30	1.00000e-13
909.83	4.40243e-6
914.35	1.00000e-13
918.88	1.00000e-13
923.41	1.00000e-13
927.94	1.00000e-13
932.46	1.00000e-13
936.99	1.00000e-13
941.52	1.00000e-13
946.04	1.00000e-13
950.57	1.00000e-13
955.09	1.00000e-13
959.62	1.00000e-13
964.15	1.00000e-13
968.67	1.00000e-13
973.20	1.00000e-13
977.73	1.00000e-13
982.25	1.00000e-13
986.78	1.00000e-13
991.31	1.00000e-13
995.83	1.00000e-13
1000.36	1.00000e-13
1004.89	1.00000e-13
1009.41	1.00000e-13
1013.94	1.00000e-13
1018.47	1.00000e-13
1022.99	1.00000e-13
1027.52	1.00000e-13
1032.04	1.00000e-13
1036.57	1.00000e-13
1041.10	1.00000e-13
1045.62	1.00000e-13
1050.15	1.00000e-13
1054.68	1.00000e-13
1059.21	1.00000e-13
1063.73	1.00000e-13
1068.26	1.00000e-13
1072.78	1.00000e-13
1077.31	1.00000e-13
1081.83	1.00000e-13
1086.36	1.00000e-13
1090.89	1.00000e-13
1095.41	1.00000e-13
1099.94	1.00000e-13
1104.47	2.60670e-5
1108.99	3.47560e-6
1113.52	1.00000e-13
1118.05	1.00000e-13
1122.58	1.00000e-13
1127.10	1.00000e-13
1131.63	1.00000e-13
1136.16	1.00000e-13
1140.68	1.00000e-13
1145.21	1.00000e-13
1149.74	1.00000e-13
1154.26	1.00000e-13
1158.79	1.00000e-13
1163.32	1.00000e-13
1167.84	1.00000e-13
1172.37	1.00000e-13
1176.89	1.00000e-13
1181.42	1.00000e-13
1185.95	1.00000e-13
1190.48	1.00000e-13
1195.00	1.00000e-13
1199.53	1.00000e-13
1204.05	1.00000e-13
1208.58	1.00000e-13
1213.11	1.00000e-13
1217.63	1.00000e-13
1222.16	1.00000e-13
1226.69	1.00000e-13
1231.21	1.00000e-13
1235.74	1.00000e-13
1240.27	1.00000e-13
1244.79	1.00000e-13
1249.32	1.15853e-7
1253.84	1.00000e-13
1258.37	1.00000e-13
1262.90	1.00000e-13
1267.42	1.71463e-5
1271.95	6.53414e-5
1276.48	5.05747e-3
1281.00	0.0326236
1285.53	0.0182613
1290.06	1.17128e-3
1294.58	5.14389e-4
1299.11	1.65786e-4
1303.64	1.17939e-4
1308.16	5.37560e-5
1312.69	2.21280e-5
1314.47	1.74939e-5