Folder: data-visualizer/data/TGA/005d-L_M (part 8)

File: L3-corrected.txt
Filename	L3
Instrument name
Operator	Galyna
rundate	2025-02-24
Sample name	L3
[step]
Step 1
Time	Temperature	Weight	Weight	Deriv. Weight
min	°C	mg	%	% / °C
0.01	25.98	1.798	100	-2.13348E-05
4.71	40.24	1.797	99.9444	-1.86836E-05
9.46	63.33	1.793	99.7219	-2.56944E-05
14.21	86.6	1.791	99.6107	-6.42281E-05
18.96	102.96	1.782	99.1101	-0.000137145
23.71	100.65	1.774	98.6652	-0.00011414
28.46	109.52	1.774	98.6652	-8.44278E-05
33.21	132.27	1.763	98.0534	-7.47884E-05
37.96	156.11	1.756	97.6641	-5.34782E-05
42.71	180.01	1.752	97.4416	-3.20853E-05
47.46	203.76	1.746	97.1079	-2.63047E-05
52.21	227.53	1.748	97.2191	-1.97451E-05
56.96	251.33	1.747	97.1635	-1.62996E-05
61.71	275.12	1.745	97.0523	-2.52474E-05
66.46	298.15	1.741	96.8298	-4.61153E-05
71.21	301.49	1.738	96.663	-0.000099525
75.96	299.68	1.736	96.5517	0.000370934
80.71	300	1.736	96.5517	-6.79546E-05
85.46	300.04	1.736	96.5517	-0.00109384
90.21	299.99	1.731	96.2736	0.00560291
94.96	300.01	1.735	96.4961	-0.00613733
99.71	300	1.731	96.2736	0.0031565
104.46	300	1.731	96.2736	0.0142609
109.21	300.01	1.731	96.2736	0.0349284
113.96	300	1.731	96.2736	0.102071
118.71	300	1.724	95.8843	0.0221966
123.46	300	1.73	96.218	-0.0767895
128.21	300	1.724	95.8843	-0.0416779
132.96	300	1.719	95.6062	0.0594968
137.71	300	1.723	95.8287	0.0445964
142.46	300	1.721	95.7175	0.0731729
147.21	300	1.72	95.6618	0.19293
151.96	300	1.717	95.495	0.210396
156.71	300	1.722	95.7731	0.144367
161.46	300	1.716	95.4394	0.15137
166.21	300	1.716	95.4394	0.077168
170.96	300	1.712	95.2169	0.00895148
175.71	300	1.709	95.0501	-0.0340244
180.46	300	1.707	94.9388	-0.0227055
185.21	300	1.705	94.8276	-0.0174317
189.96	300	1.703	94.7164	0.105418
194.71	300	1.695	94.2714	0.12735
199.46	300	1.697	94.3826	-0.0329438
204.21	300	1.697	94.3826	-0.053987
208.96	300	1.693	94.1602	-0.0205021
213.71	300	1.691	94.0489	-0.0254537
218.46	300	1.683	93.604	0.052993
223.21	300	1.686	93.7709	0.00962838
227.96	300	1.682	93.5484	0.0337593
232.71	300	1.682	93.5484	0.0560672
237.46	300	1.68	93.4372	0.0397953
242.21	300	1.678	93.3259	0.0614436
246.96	300	1.676	93.2147	0.0160742
251.71	300	1.675	93.1591	-0.0452339
256.46	300	1.673	93.0478	0.0516393
261.21	300	1.673	93.0478	0.00541951
265.96	300	1.668	92.7697	0.0399729
270.71	300	1.667	92.7141	0.12671
275.46	300	1.665	92.6029	0.0856947
280.21	300	1.664	92.5473	-0.0320647
284.96	300	1.663	92.4917	-0.0063709
289.71	300	1.661	92.3804	0.0402223
294.46	300	1.66	92.3248	0.110554
299.21	300	1.657	92.158	-0.00326033
303.96	300	1.656	92.1023	-0.0161748
308.71	300	1.657	92.158	0.0867189
313.46	300	1.653	91.9355	0.0838765
318.21	300	1.652	91.8799	-0.0563787
322.96	300	1.65	91.7686	-0.0676319
327.71	300	1.651	91.8242	0.00742697
332.46	300	1.645	91.4905	0.0550736
337.21	300	1.644	91.4349	0.0580579
341.96	300	1.642	91.3237	0.0198564
346.71	300	1.642	91.3237	-0.000451173
351.46	300	1.638	91.1012	0.0259762
356.21	300	1.64	91.2125	-0.0120976
360.96	300	1.638	91.1012	0.00653849
365.71	300	1.636	90.99	0.0160111
370.46	300	1.638	91.1012	0.0439629
375.21	300	1.635	90.9344	0.0491943
379.96	300	1.636	90.99	0.0715316
384.71	300	1.641	91.2681	0.0812594
389.46	300	1.635	90.9344	0.0822702
394.21	300	1.636	90.99	-0.00621756
398.96	300	1.632	90.7675	-0.048394
403.71	300	1.635	90.9344	-0.0282538
408.46	300	1.629	90.6007	0.041356
413.21	300	1.627	90.4894	0.0491872
417.96	300	1.628	90.5451	0.0709629
422.71	300	1.63	90.6563	0.065256
427.46	300	1.625	90.3782	0.0745006
432.21	300	1.628	90.5451	0.0863943
436.96	300	1.625	90.3782	0.0760917
441.71	300	1.622	90.2113	-0.00468768
446.46	300	1.619	90.0445	-0.0684773
451.21	300	1.622	90.2113	-0.05849
455.96	300	1.619	90.0445	0.0172593
460.71	300	1.612	89.6552	0.0742015
465.46	300	1.617	89.9333	0.0642626
470.21	300	1.617	89.9333	0.0829601
474.96	300	1.614	89.7664	0.101763
479.71	300	1.615	89.822	-0.000361837
484.46	300	1.613	89.7108	-0.113805
489.21	300	1.609	89.4883	-0.0822989
493.96	300	1.608	89.4327	0.121998
498.71	300	1.604	89.2102	0.0421853
503.46	300	1.607	89.3771	0.0584049
508.21	300	1.604	89.2102	0.0458312
512.96	300	1.601	89.0434	0.0194148
517.71	300	1.602	89.099	0.000744071
522.46	300	1.599	88.9321	0.0175791
527.21	300	1.595	88.7097	0.0770063
531.96	300	1.593	88.5984	-0.0126758
536.71	300	1.591	88.4872	-0.078368
541.46	300	1.594	88.6541	0.00915858
546.21	300	1.59	88.4316	0.108991
550.96	300	1.591	88.4872	0.114888
555.71	300	1.588	88.3204	0.0932136
560.46	300	1.588	88.3204	0.0187597
565.21	300	1.587	88.2647	0.0799705
569.96	300	1.583	88.0423	0.136791
574.71	300	1.583	88.0423	0.0152251
579.46	300	1.582	87.9867	-0.0749807
584.21	300	1.575	87.5973	-0.0401172
588.96	300	1.576	87.6529	0.125518
593.71	300	1.575	87.5973	0.0593927
598.46	300.01	1.575	87.5973	0.0798543
603.21	299.99	1.573	87.4861	0.0806086
607.96	300	1.576	87.6529	-0.00167065
612.71	300	1.572	87.4305	-0.111152
617.46	300	1.566	87.0968	-0.0599247
622.21	300	1.564	86.9855	-0.0818155
626.96	300	1.562	86.8743	-0.0255354
631.71	300	1.562	86.8743	0.124653
636.46	300	1.558	86.6518	0.0855739
641.21	300	1.56	86.7631	0.0465985
645.96	300	1.557	86.5962	0.04394
650.71	300	1.555	86.485	0.102129
655.46	300	1.555	86.485	0.113262
660.21	300	1.557	86.5962	0.0193137
664.96	300	1.553	86.3737	0.0211262
669.71	300	1.55	86.2069	-0.0342995
674.46	300	1.545	85.9288	-0.0533657
679.21	300	1.546	85.9844	-0.0473259
683.96	300	1.542	85.762	0.0673109
688.71	300	1.541	85.7063	0.0781957
693.46	299.99	1.543	85.8176	0.0649137
698.21	300	1.54	85.6507	0.00621663
702.96	300	1.536	85.4283	-0.0923463
707.71	300	1.536	85.4283	0.0285179
712.46	300	1.534	85.317	0.0358811
717.21	300	1.531	85.1502	-0.071978
721.96	300	1.528	84.9833	-0.0701927
726.71	300	1.528	84.9833	0.109502
731.46	300	1.528	84.9833	0.114282
736.21	300	1.527	84.9277	0.151351
740.96	300	1.524	84.7608	0.110085
745.71	299.99	1.522	84.6496	0.0956554
750.46	300	1.522	84.6496	0.0139701
755.21	300	1.523	84.7052	-0.0882431
759.96	300	1.518	84.4271	-0.0442243
764.71	300	1.515	84.2603	-0.0101415
769.46	300	1.515	84.2603	0.072426
774.21	300	1.513	84.1491	0.0417488
778.96	300	1.513	84.1491	0.077249
783.71	300	1.509	83.9266	0.0456217
788.46	300	1.508	83.871	0.0546123
793.21	300	1.509	83.9266	-0.0132398
797.96	300	1.508	83.871	-0.128702
802.71	300	1.5	83.426	-0.0840731
807.46	300	1.501	83.4816	0.0131946
812.21	300	1.499	83.3704	0.0685177
816.96	300	1.499	83.3704	0.0824078
821.71	300	1.494	83.0923	0.0878163
826.46	300	1.496	83.2036	0.0206336
831.21	300	1.494	83.0923	-0.052619
835.96	300	1.491	82.9255	0.141951
840.71	300	1.49	82.8699	0.111786
845.46	300	1.489	82.8142	-0.031151
850.21	300	1.487	82.703	-0.118525
854.96	300	1.486	82.6474	-0.0818196
859.71	300	1.485	82.5918	0.0409699
864.46	300	1.483	82.4805	0.0834931
869.21	300	1.481	82.3693	0.123282
873.96	300	1.478	82.2024	0.0777854
878.71	300	1.479	82.2581	0.095577
883.46	300	1.476	82.0912	-0.0604622
888.21	300	1.474	81.98	-0.112751
892.96	300	1.472	81.8687	-0.116329
897.71	300	1.469	81.7019	0.0760863
902.46	300	1.468	81.6463	0.0531484
907.21	300	1.468	81.6463	0.101838
911.96	300	1.466	81.535	0.0875071
916.71	300	1.466	81.535	0.117372
921.46	300	1.465	81.4794	-0.065909
926.21	300	1.463	81.3682	-0.0389879
930.96	300	1.459	81.1457	-0.106246
935.71	300	1.46	81.2013	-0.0468304
940.46	300	1.456	80.9789	-0.068372
945.21	300	1.454	80.8676	0.0378009
949.96	300	1.45	80.6452	0.0169386
954.71	300	1.452	80.7564	0.153639
959.46	300	1.452	80.7564	0.175252
964.21	300	1.447	80.4783	0.0588118
968.96	300	1.446	80.4227	-0.128367
973.71	300	1.445	80.3671	-0.0690771
978.46	300	1.444	80.3115	-0.052438
983.21	300	1.442	80.2002	-0.0579723
987.96	300	1.439	80.0334	0.0227641
992.71	300	1.439	80.0334	0.0245881
997.46	300	1.438	79.9778	0.0788593
1002.21	300	1.435	79.8109	0.114618
1006.96	300	1.435	79.8109	0.0705531
1011.71	300	1.434	79.7553	0.0272262
1016.46	300	1.434	79.7553	-0.127844
1021.21	300	1.429	79.4772	-0.139271
1025.96	300	1.426	79.3103	-0.16554
1030.71	300	1.425	79.2547	0.0966824
1035.46	300	1.423	79.1435	0.0103916
1040.21	300	1.423	79.1435	0.0506768
1044.96	300	1.421	79.0323	0.0944014
1049.71	300	1.418	78.8654	0.140689
1054.46	300	1.419	78.921	0.136252
1059.21	300	1.418	78.8654	-0.0928852
1063.96	300	1.413	78.5873	-0.0939109
1068.71	300	1.413	78.5873	0.0991909
1073.46	300	1.41	78.4205	0.0713912
1078.21	300	1.411	78.4761	-0.144686
1082.96	300	1.407	78.2536	-0.169962
1087.71	300	1.404	78.0868	-0.00669635
1092.46	300	1.405	78.1424	0.132826
1097.21	300	1.402	77.9755	0.162087
1101.96	300	1.401	77.9199	0.219738
1106.71	300	1.4	77.8643	0.156931
1111.46	300	1.399	77.8087	-0.153623
1116.21	300	1.395	77.5862	-0.1671
1120.96	300	1.396	77.6418	-0.147375
1125.71	300	1.392	77.4194	0.0189354
1130.46	300	1.387	77.1413	0.0829192
1135.21	300	1.389	77.2525	0.130482
1139.96	300	1.386	77.0857	0.132916
1144.71	300	1.385	77.03	0.153864
1149.46	300	1.384	76.9744	0.185048
1154.21	300	1.384	76.9744	-0.0574837
1158.96	300	1.379	76.6963	-0.143084
1163.71	300	1.38	76.7519	-0.126277
1168.46	300	1.38	76.7519	0.123691
1173.21	300	1.376	76.5295	-0.114977
1177.96	300	1.374	76.4182	-0.0445757
1182.71	300	1.374	76.4182	0.0627253
1187.46	300	1.368	76.0845	0.100222
1192.21	300	1.367	76.0289	0.130969
1196.96	300	1.368	76.0845	0.141439
1201.71	300	1.37	76.1958	0.0275555
1206.46	300	1.364	75.8621	-0.105617
1211.21	300	1.362	75.7508	-0.102429
1215.96	300	1.361	75.6952	0.00511212
1220.71	300	1.359	75.584	-0.0669965
1225.46	300	1.356	75.4171	-0.0663709
1230.21	300	1.355	75.3615	0.146241
1234.96	300	1.354	75.3059	0.16009
1239.71	300	1.352	75.1947	0.0956281
1244.46	300	1.351	75.139	0.287014
1249.21	300	1.35	75.0834	0.158219
1253.96	300	1.349	75.0278	0.0827314
1258.71	300	1.347	74.9166	-2.84419E-05
1263.46	300	1.344	74.7497	-5.49706E-05
1268.21	321.75	1.344	74.7497	-0.000342081
1272.96	368.09	1.307	72.6919	-0.00171431
1277.71	416.27	0.805	44.772	-0.00257504
1282.46	463.87	0.008	0.444939	-0.00183099
1287.21	511.54	0.005	0.278087	-0.000227929
1291.96	559.16	0.004	0.222469	5.40714E-06
1296.71	606.76	0.006	0.333704	1.51431E-05
1301.46	654.34	0.005	0.278087	2.06321E-05
1306.21	701.93	0.017	0.945495	0.000018913
1310.96	749.49	0.007	0.389321	1.32917E-05
1314.71	787.04			1.31465E-05

File: L3-seferosTGA.txt
Filename	F1
Instrument name
Operator	Gwenael
rundate	2025-02-10
Sample name	F1
[step]
Step 1
Time	Temperature	Weight	Weight	Deriv. Weight
min	°C	mg	%	% / °C
0	30.466	0.74533	100	50
2.68	41.944	0.92867	93.15725	50
5.36	63.7	2.01392	95.27756	50
7.5	87.981	2.66467	95.98453	50
8.84	98.649	1.63674	94.33888	50
10.18	104.674	0.99005	93.08066	50
11.52	108.179	0.50929	91.85957	50
12.86	109.322	9.38E-02	90.69323	50
14.2	109.063	-0.15696	89.78066	50
15.54	107.997	-0.30225	89.04101	50
16.88	106.522	-0.36552	88.48298	50
19.48	108.401	0.46885	89.22495	50
22.16	118.385	1.21144	90.00174	50
24.84	133.01	1.62377	90.18781	50
27.52	148.776	1.72451	90.18124	50
30.2	163.972	1.6826	90.2381	50
32.88	178.277	1.60476	90.29052	50
35.56	192.021	1.53895	90.38897	50
38.24	205.482	1.49131	90.48975	50
40.92	218.817	1.44864	90.5619	50
43.6	232.14	1.40408	90.62766	50
46.28	245.476	1.34754	90.73926	50
48.96	258.812	1.27636	90.81141	50
51.64	272.145	1.19934	90.87041	50
54.32	285.494	1.10704	90.89671	50
57.06	299.126	1.00581	90.89671	50
63.76	302.196	-1.27844	90.02573	50
70.46	300.518	-1.19993	89.10019	50
77.16	300.101	-1.16615	88.38453	50
83.86	300.02	-1.16285	87.76093	50
90.56	300.009	-1.16152	87.22476	50
97.26	300.01	-1.16209	86.7675	50
103.96	300.021	-1.16735	86.33424	50
110.66	300.009	-1.17183	85.9381	50
117.36	300.015	-1.17147	85.53114	50
124.06	300.011	-1.17446	85.15899	50
130.76	300.014	-1.17484	84.76518	50
137.46	300.011	-1.1769	84.42592	50
144.16	300.024	-1.17504	84.07814	50
150.86	300.022	-1.1771	83.75416	50
157.56	300.016	-1.18028	83.41509	50
164.26	300.018	-1.18084	83.06712	50
170.96	300.025	-1.17992	82.72128	50
177.66	300.007	-1.18251	82.36035	50
184.36	300.021	-1.18422	82.03211	50
191.06	300.041	-1.18275	81.65338	50
197.76	300.011	-1.18439	81.34275	50
204.46	300.023	-1.18741	80.98607	50
211.16	300.017	-1.1859	80.64894	50
217.86	300.013	-1.18871	80.30116	50
224.56	300.016	-1.17278	79.92244	50
231.26	300.022	-1.17579	79.56151	50
237.96	300.016	-1.17803	79.27253	50
244.66	300.016	-1.17653	78.92476	50
251.36	300.019	-1.17541	78.57447	50
258.06	300.013	-1.17877	78.2354	50
264.76	300.024	-1.17766	77.8853	50
271.46	300.007	-1.18008	77.52205	50
278.16	300.006	-1.17895	77.17408	50
284.86	300.025	-1.17898	76.79323	50
291.56	300.029	-1.18086	76.406	50
298.26	300.021	-1.18235	76.06015	50
304.96	300.026	-1.18573	75.6795	50
311.66	300.021	-1.18253	75.3381	50
318.36	300.021	-1.18291	74.96383	50
325.06	300.012	-1.18683	74.58975	50
331.76	300.011	-1.18458	74.22205	50
338.46	300.015	-1.18515	73.87408	50
345.16	300.02	-1.18891	73.50658	50
351.86	300.003	-1.18851	73.13675	50
358.56	300.024	-1.18816	72.79536	50
365.26	300.014	-1.19209	72.42108	50
371.96	299.997	-1.19187	72.047	50
378.66	300.018	-1.19247	71.67718	50
385.36	300.001	-1.19357	71.30077	50
392.06	300.019	-1.1919	70.93965	50
398.76	300.014	-1.1964	70.58956	50
405.46	300.018	-1.1934	70.20658	50
412.16	300.029	-1.19473	69.87834	50
418.86	300.018	-1.19115	69.50851	50
425.56	300.005	-1.1932	69.12766	50
432.26	300.025	-1.19772	68.77988	50
438.96	300.016	-1.19809	68.41219	50
445.66	300.017	-1.1964	68.03791	50
452.36	300.019	-1.19809	67.70309	50
459.06	300.021	-1.19959	67.33559	50
465.76	300.013	-1.19958	66.98762	50
472.46	300.014	-1.20127	66.60039	50
479.16	300.022	-1.19772	66.25899	50
485.86	300.007	-1.20445	65.93501	50
492.56	300.033	-1.20317	65.58046	50
499.26	300.024	-1.20372	65.24584	50
505.96	300.027	-1.20729	64.8913	50
512.66	300.018	-1.20596	64.5236	50
519.36	300.029	-1.2086	64.18221	50
526.06	300.031	-1.21161	63.84081	50
532.76	300.018	-1.20953	63.46673	50
539.46	300.032	-1.20973	63.15822	50
546.16	300.015	-1.2099	62.84294	50
552.86	300.023	-1.21141	62.45783	50
559.56	300.01	-1.2082	62.12302	50
566.26	300.026	-1.21085	61.80793	50
572.96	300.021	-1.21459	61.47311	50
579.66	300.021	-1.21047	61.09903	50
586.36	300.013	-1.21158	60.77079	50
593.06	299.998	-1.214	60.42282	50
599.76	300.011	-1.21476	60.04855	50
606.46	300.014	-1.21402	59.70716	50
613.16	300.021	-1.21478	59.3528	50
619.86	300.021	-1.21647	58.99826	50
626.56	300.019	-1.21796	58.64816	50
633.26	300.022	-1.21965	58.33308	50
639.96	300.019	-1.22265	57.99826	50
646.66	300.011	-1.22039	57.65029	50
653.36	300.014	-1.22058	57.36789	50
660.06	300.012	-1.22095	57.0265	50
666.76	300.019	-1.22115	56.71799	50
673.46	300.013	-1.22302	56.41605	50
680.16	300.026	-1.22435	56.08124	50
686.86	300.011	-1.22414	55.73114	50
693.56	300.022	-1.22565	55.4029	50
700.26	300.015	-1.22414	55.08781	50
706.96	300.007	-1.22526	54.75087	50
713.66	300.026	-1.22453	54.44217	50
720.36	300.017	-1.2249	54.10735	50
727.06	300.011	-1.22639	53.79226	50
733.76	300.022	-1.22828	53.42476	50
740.46	300.003	-1.23087	53.08994	50
747.16	300.016	-1.23371	52.78124	50
753.86	300.018	-1.23202	52.43346	50
760.56	300.011	-1.23613	52.13133	50
767.26	300.018	-1.23652	51.83598	50
773.96	300.01	-1.23407	51.56692	50
780.66	300.021	-1.23465	51.25164	50
787.36	300.007	-1.2365	50.95629	50
794.06	300.017	-1.23464	50.62805	50
800.76	300.019	-1.23427	50.3501	50
807.46	300.024	-1.2369	50.03501	50
814.16	300.015	-1.2397	49.74623	50
820.86	300.011	-1.24026	49.39168	50
827.56	300.007	-1.24157	49.10058	50
834.26	300.02	-1.24308	48.8118	50
840.96	300.017	-1.24233	48.52959	50
847.66	300.016	-1.24364	48.1882	50
854.36	300.018	-1.23821	47.91025	50
861.06	300.004	-1.24325	47.63017	50
867.76	300.012	-1.24626	47.36093	50
874.46	300.013	-1.24307	47.03482	50
881.16	300.02	-1.24421	46.75706	50
887.86	300.013	-1.24532	46.45493	50
894.56	300.011	-1.24363	46.16615	50
901.26	300.022	-1.2444	45.87737	50
907.96	300.002	-1.24325	45.58182	50
914.66	300.009	-1.24757	45.31934	50
921.36	300.018	-1.24814	45.04352	50
928.06	300.041	-1.24836	44.73714	50
934.76	300.007	-1.24775	44.44836	50
941.46	300.021	-1.24833	44.153	50
948.16	300.022	-1.24946	43.89033	50
954.86	300.021	-1.25246	43.59284	50
961.56	300.029	-1.24741	43.29729	50
968.26	300.022	-1.24871	42.9735	50
974.96	300.011	-1.24776	42.70426	50
981.66	300.018	-1.24571	42.44836	50
988.36	299.999	-1.24662	42.17253	50
995.06	300.023	-1.24796	41.86847	50
1001.76	300.015	-1.24739	41.59265	50
1008.46	300.007	-1.24663	41.32128	50
1015.16	300.01	-1.25038	41.0499	50
1021.86	300.016	-1.2502	40.74584	50
1028.56	300.018	-1.25039	40.48975	50
1035.26	300.019	-1.24608	40.18124	50
1041.96	300.007	-1.24756	39.89014	50
1048.66	300.014	-1.2502	39.61219	50
1055.36	300.014	-1.25095	39.32553	50
1062.06	300.011	-1.25001	39.06306	50
1068.76	300.009	-1.25132	38.71509	50
1075.46	300.022	-1.24984	38.49632	50
1082.16	300.021	-1.25358	38.22708	50
1088.86	300.022	-1.25583	37.98414	50
1095.56	300.009	-1.25338	37.71277	50
1102.26	300.009	-1.25638	37.43501	50
1108.96	300.022	-1.25696	37.16132	50
1115.66	300.011	-1.25507	36.90542	50
1122.36	300.02	-1.25696	36.6559	50
1129.06	300.009	-1.25507	36.42824	50
1135.76	300.006	-1.25281	36.17892	50
1142.46	300.021	-1.25921	35.90097	50
1149.16	300.015	-1.25245	35.6559	50
1155.86	300.005	-1.25394	35.3824	50
1162.56	300.022	-1.25396	35.11973	50
1169.26	300.014	-1.25864	34.87679	50
1175.96	300.011	-1.25694	34.64487	50
1182.66	299.987	-1.25728	34.3648	50
1189.36	300.018	-1.25883	34.09342	50
1196.06	300.009	-1.25975	33.88337	50
1202.76	300.019	-1.25733	33.60774	50
1209.46	300.01	-1.25919	33.38878	50
1216.16	300.016	-1.26089	33.13056	50
1222.86	300.015	-1.25901	32.88762	50
1229.56	300.016	-1.26014	32.67099	50
1236.26	300.021	-1.26427	32.42824	50
1242.96	300.027	-1.25828	32.20503	50
1249.66	300.032	-1.26054	32.02108	50
1256.36	300.029	-1.26372	31.78472	50
1257.265	300.459	-0.9742	31.71044	50
1257.6	302.988	0.6323	31.76286	50
1257.935	307.786	2.92863	32.2706	50
1258.27	313.78	4.73258	32.7499	50
1258.605	319.854	5.52278	33.02128	50
1258.94	325.576	5.58992	33.12631	50
1259.275	331.164	5.49691	33.17872	50
1259.61	336.981	5.63768	33.28375	50
1259.945	343.313	6.06304	33.38878	50
1260.28	350.118	6.59549	33.4675	50
1260.615	357.211	7.01478	33.52012	50
1260.95	364.391	7.2469	33.44139	50
1261.285	371.581	7.33193	33.24662	50
1261.62	378.752	7.36534	32.84603	50
1261.955	385.965	7.41432	32.23346	50
1262.29	393.218	7.49107	31.3472	50
1262.625	400.502	7.60114	29.95764	50
1262.96	407.776	7.73275	27.88975	50
1263.295	415.033	7.86439	25.1675	50
1263.63	422.253	8.02256	21.46925	50
1263.965	429.421	8.13991	17.04681	50
1264.3	436.549	8.16449	12.16905	50
1264.635	443.66	8.02194	7.53868	50
1264.97	450.726	7.67886	3.753	50
1265.305	457.765	7.19636	1.18182	50
1265.64	464.771	6.68426	-0.2646	50
1265.975	471.767	6.22002	-0.87969	50
1266.31	478.736	5.85119	-0.9824	50
1266.645	485.666	5.57551	-0.92998	50
1266.98	492.59	5.35231	-0.85106	50
1267.315	499.448	5.14332	-0.79865	50
1267.65	506.302	4.94578	-0.70677	50
1267.985	513.132	4.7471	-0.64101	50
1268.32	519.969	4.58072	-0.55783	50
1268.655	526.815	4.40654	-0.47911	50
1268.99	533.605	4.19515	-0.40039	50
1269.325	540.373	3.97535	-0.32166	50
1269.66	547.121	3.76977	-0.24932	50
1269.995	553.87	3.57482	-0.19033	50
1270.33	560.621	3.38718	-0.10503	50
1270.665	567.365	3.19492	-2.40E-02	50
1271	574.108	3.00524	1.55E-02	50
1271.335	580.849	2.80301	0.12263	50
1271.67	587.593	2.59399	0.17524	50
1272.005	594.332	2.36992	0.25397	50
1272.34	601.059	2.1561	0.27795	50
1272.675	607.797	1.94876	0.35687	50
1273.01	614.531	1.72584	0.41586	50
1273.345	621.267	1.49719	0.49458	50
1273.68	627.996	1.25658	0.5472	50
1274.015	634.713	1.01751	0.61277	50
1274.35	641.436	0.77011	0.65222	50
1274.685	648.166	0.50623	0.71779	50
1275.02	654.875	0.25206	0.80967	50
1275.355	661.603	-7.89E-03	0.83598	50
1275.69	668.33	-0.28542	0.96731	50
1276.025	675.047	-0.57455	0.9323	50
1276.36	681.759	-0.87362	0.97176	50
1276.695	688.496	-1.17226	1.02418	50
1277.03	695.218	-1.45888	1.1029	50
1277.365	701.968	-1.74993	1.15551	50
1277.7	708.706	-2.05455	1.18839	50
1278.035	715.446	-2.35571	1.26712	50
1278.37	722.189	-2.67124	1.31954	50
1278.705	728.913	-2.98823	1.39845	50
1279.04	735.644	-3.32581	1.45087	50
1279.375	742.372	-3.63136	1.47718	50
1279.71	749.121	-3.94682	1.52979	50
1280.045	755.856	-4.26362	1.60851	50
1280.38	762.59	-4.58052	1.64778	50
1280.715	769.334	-4.90336	1.71354	50
1281.05	776.039	-5.21678	1.76596	50
1281.385	782.779	-5.53367	1.8383	50
1281.72	789.497	-5.84268	1.89729	50
1281.96	794.329	-6.05813	1.9236	50