Folder: data-visualizer/data/TGA/005d-L_M (part 3)

File: F1.txt
Filename	F1
Instrument name
Operator	Gwenael
rundate	2025-02-10
Sample name	F1
[step]
Step 1
Time	Temperature	Weight	Weight	Deriv. Weight
min	°C	mg	%	% / °C
0,02	24,96	4,512	100,034	3,45284e-3
4,71	39,60	4,522	100,272	2,02289e-3
9,46	62,58	4,523	100,294	5,54392e-4
14,21	86,05	4,524	100,304	-2,24516e-3
18,96	102,92	4,518	100,174	-6,31209e-3
23,71	100,80	4,515	100,105	-2,08313e-3
28,46	108,71	4,517	100,147	8,10758e-4
33,21	131,45	4,516	100,143	-2,29834e-4
37,96	155,27	4,516	100,138	-5,22669e-4
42,71	179,15	4,517	100,153	-1,24136e-3
47,46	202,92	4,513	100,072	-1,75714e-3
52,21	226,69	4,511	100,015	-2,18779e-3
56,96	250,48	4,509	99,977	-2,00794e-3
61,71	274,27	4,507	99,931	-3,33679e-3
66,46	297,56	4,503	99,841	-7,04695e-3
71,21	301,58	4,495	99,672	-0,0174381
75,96	299,69	4,489	99,534	0,147866
80,71	299,98	4,482	99,372	0,0598857
85,46	300,04	4,475	99,227	-0,779187
90,21	299,98	4,467	99,052	4,09647
94,96	300,00	4,460	98,901	-7,67791
99,71	300,00	4,451	98,699	-3,84352
104,46	300,00	4,444	98,533	35,7462
109,21	300,00	4,435	98,347	-94,4081
113,96	300,00	4,427	98,159	-15,2565
118,71	300,00	4,418	97,966	91,2276
123,46	300,00	4,409	97,769	36,1248
128,21	300,00	4,401	97,574	48,6497
132,96	300,00	4,392	97,385	5,25140
137,71	300,00	4,383	97,194	17,2954
142,46	300,00	4,374	96,991	-34,2762
147,21	300,00	4,366	96,808	-36,6619
151,96	300,00	4,358	96,625	57,0969
156,71	300,00	4,349	96,430	34,1616
161,46	300,00	4,341	96,245	-60,4374
166,21	300,00	4,332	96,062	13,4988
170,96	300,00	4,324	95,880	11,9224
175,71	300,00	4,316	95,699	-4,89414
180,46	300,00	4,308	95,516	-31,8036
185,21	300,00	4,300	95,341	-14,8430
189,96	300,00	4,292	95,175	35,1939
194,71	300,00	4,285	95,002	45,3427
199,46	300,00	4,277	94,834	-2,44741
204,21	300,00	4,270	94,671	-67,2211
208,96	300,00	4,262	94,501	-48,3743
213,71	300,00	4,255	94,340	50,3294
218,46	300,00	4,248	94,181	37,4539
223,21	300,00	4,241	94,034	69,9303
227,96	300,00	4,234	93,876	-30,5283
232,71	300,00	4,227	93,728	-5,76627
237,46	300,00	4,220	93,575	5,53106
242,21	300,00	4,214	93,429	58,4201
246,96	300,00	4,207	93,290	-61,8389
251,71	300,00	4,200	93,136	-55,4662
256,46	300,00	4,195	93,007	-62,3026
261,21	300,00	4,188	92,870	32,4868
265,96	300,00	4,182	92,736	14,0232
270,71	300,00	4,176	92,596	28,7878
275,46	300,00	4,170	92,467	15,8859
280,21	300,00	4,164	92,330	41,0268
284,96	300,00	4,158	92,198	-49,6604
289,71	300,00	4,152	92,062	-26,8209
294,46	300,00	4,147	91,949	18,3698
299,21	300,00	4,141	91,821	0,596701
303,96	300,00	4,136	91,708	6,42034
308,71	300,00	4,130	91,585	15,2847
313,46	300,00	4,125	91,466	21,0484
318,21	300,00	4,120	91,361	-12,8678
322,96	300,00	4,115	91,237	14,4887
327,71	300,00	4,110	91,124	-23,4944
332,46	300,00	4,105	91,012	39,2119
337,21	300,00	4,099	90,895	7,51461
341,96	300,00	4,094	90,771	-41,6977
346,71	300,00	4,089	90,676	3,18547
351,46	300,00	4,084	90,564	-4,29374
356,21	300,00	4,080	90,457	-6,74236
360,96	300,00	4,075	90,356	-35,1834
365,71	300,00	4,070	90,254	-15,2037
370,46	300,00	4,066	90,147	25,0502
375,21	300,00	4,061	90,043	26,8494
379,96	300,00	4,056	89,937	-22,8471
384,71	300,00	4,052	89,841	-19,5468
389,46	300,00	4,047	89,736	-14,4449
394,21	300,00	4,043	89,643	9,14582
398,96	300,00	4,038	89,544	20,0099
403,71	300,00	4,034	89,449	21,1412
408,46	300,00	4,030	89,360	-3,36830
413,21	300,00	4,025	89,255	-24,5117
417,96	300,00	4,021	89,167	1,52329
422,71	300,00	4,017	89,076	26,0074
427,46	300,00	4,013	88,981	39,4137
432,21	300,00	4,008	88,879	-42,1018
436,96	300,00	4,005	88,796	-15,3531
441,71	300,00	4,001	88,708	-1,44093
446,46	300,00	3,996	88,612	4,38495
451,21	300,00	3,992	88,521	0,0617709
455,96	300,00	3,988	88,432	30,3203
460,71	300,00	3,984	88,341	24,0602
465,46	300,00	3,980	88,249	-35,6861
470,21	300,00	3,976	88,167	-36,6878
474,96	300,00	3,972	88,075	17,1212
479,71	300,00	3,968	87,989	37,3052
484,46	300,00	3,964	87,896	-2,46499
489,21	300,00	3,960	87,807	-33,6648
493,96	300,00	3,956	87,725	2,27765
498,71	300,00	3,953	87,639	50,2975
503,46	300,00	3,948	87,548	15,4740
508,21	300,00	3,945	87,463	-45,4112
512,96	300,00	3,941	87,382	-33,0275
517,71	300,00	3,937	87,298	31,8021
522,46	300,00	3,933	87,211	-25,7844
527,21	300,00	3,930	87,130	-2,53669
531,96	300,00	3,926	87,049	16,0334
536,71	300,00	3,922	86,961	12,1404
541,46	300,00	3,919	86,888	1,45943
546,21	300,00	3,915	86,817	5,86951
550,96	300,00	3,912	86,730	-28,3546
555,71	300,00	3,908	86,658	-1,13999
560,46	300,00	3,905	86,581	51,4059
565,21	300,00	3,901	86,504	4,81194
569,96	300,00	3,898	86,428	-28,6316
574,71	300,00	3,894	86,347	-23,9062
579,46	300,00	3,891	86,284	-2,64733
584,21	300,00	3,888	86,217	24,7571
588,96	300,00	3,885	86,143	24,4027
593,71	300,00	3,882	86,070	-19,0393
598,46	300,00	3,879	86,000	-24,9760
603,21	300,00	3,875	85,923	-13,4558
607,96	300,00	3,872	85,855	5,37279
612,71	300,00	3,869	85,778	15,6774
617,46	300,00	3,866	85,719	25,4458
622,21	300,00	3,862	85,640	49,8425
626,96	300,00	3,859	85,558	-20,4016
631,71	300,00	3,856	85,499	4,79782
636,46	300,00	3,853	85,443	4,29057
641,21	300,00	3,849	85,350	-3,11844
645,96	300,00	3,847	85,288	1,17880
650,71	300,00	3,843	85,211	16,8393
655,46	300,00	3,840	85,142	-19,2443
660,21	300,00	3,837	85,082	4,30249
664,96	300,00	3,834	85,014	3,24339
669,71	300,00	3,830	84,933	-26,8948
674,46	300,00	3,827	84,859	-9,24988
679,21	300,00	3,824	84,786	13,8887
683,96	300,00	3,821	84,727	2,90081
688,71	300,00	3,818	84,647	-26,1282
693,46	300,00	3,815	84,590	4,85266
698,21	300,00	3,812	84,521	37,6791
702,96	300,00	3,809	84,452	-6,73114
707,71	300,00	3,806	84,379	-30,0496
712,46	300,00	3,802	84,312	-43,9506
717,21	300,00	3,799	84,245	8,45305
721,96	300,00	3,796	84,175	25,4751
726,71	300,00	3,793	84,113	25,0514
731,46	300,00	3,790	84,046	-23,1434
736,21	300,00	3,788	83,982	0,591593
740,96	300,00	3,785	83,915	10,8611
745,71	300,00	3,782	83,847	1,12785
750,46	300,00	3,779	83,789	-4,09747
755,21	300,00	3,776	83,718	-11,5366
759,96	300,00	3,773	83,651	12,4873
764,71	300,00	3,770	83,586	-4,97791
769,46	300,00	3,767	83,525	25,0399
774,21	300,00	3,764	83,455	6,36571
778,96	300,00	3,761	83,387	-18,9497
783,71	300,00	3,758	83,335	-34,4956
788,46	300,00	3,756	83,271	-2,15216
793,21	300,00	3,753	83,206	33,6816
797,96	300,00	3,749	83,131	15,4447
802,71	300,00	3,748	83,094	-7,48350
807,46	300,00	3,744	83,009	-3,99981
812,21	300,00	3,741	82,959	-9,18591
816,96	300,00	3,738	82,887	-21,7866
821,71	300,00	3,735	82,823	18,4486
826,46	300,00	3,733	82,762	34,2993
831,21	300,00	3,730	82,700	5,29638
835,96	300,00	3,726	82,627	-16,9060
840,71	300,00	3,724	82,567	-6,26294
845,46	300,00	3,721	82,512	11,4258
850,21	300,00	3,719	82,453	-8,48907
854,96	300,00	3,716	82,398	-5,43077
859,71	300,00	3,712	82,309	24,6743
864,46	300,00	3,710	82,256	-25,4860
869,21	300,00	3,707	82,190	-17,2397
873,96	300,00	3,704	82,133	-31,3557
878,71	300,00	3,701	82,064	16,3179
883,46	300,00	3,699	82,008	27,0334
888,21	300,00	3,696	81,949	5,89281
892,96	300,00	3,693	81,881	-12,0255
897,71	300,00	3,690	81,828	14,3279
902,46	300,00	3,688	81,775	16,4979
907,21	300,00	3,685	81,709	-22,3650
911,96	300,00	3,682	81,651	-29,8773
916,71	300,00	3,680	81,588	-2,90616
921,46	300,00	3,677	81,525	-7,93370
926,21	300,00	3,674	81,470	7,83498
930,96	300,00	3,672	81,409	14,8020
935,71	300,00	3,669	81,350	-8,77576
940,46	300,00	3,666	81,295	3,43767
945,21	300,00	3,664	81,234	-2,91037
949,96	300,00	3,661	81,170	19,6383
954,71	300,00	3,659	81,120	-20,0152
959,46	300,00	3,656	81,062	7,50205
964,21	300,00	3,653	81,004	12,7157
968,96	300,00	3,651	80,948	15,4987
973,71	300,00	3,648	80,894	-19,2538
978,46	300,00	3,646	80,832	-9,97828
983,21	300,00	3,643	80,774	-33,7363
987,96	300,00	3,640	80,719	26,6642
992,71	300,00	3,638	80,656	-10,1347
997,46	300,00	3,635	80,593	2,87916
1002,21	300,00	3,632	80,537	-1,48887
1006,96	300,00	3,630	80,486	-0,522087
1011,71	300,00	3,627	80,427	-19,9351
1016,46	300,00	3,625	80,367	25,5424
1021,21	300,00	3,623	80,325	32,8801
1025,96	300,00	3,619	80,243	20,5049
1030,71	300,00	3,618	80,219	-21,1628
1035,46	300,00	3,615	80,145	20,1533
1040,21	300,00	3,612	80,097	14,2950
1044,96	300,00	3,609	80,031	11,1609
1049,71	300,00	3,607	79,975	-18,3939
1054,46	300,00	3,604	79,921	-19,4486
1059,21	300,00	3,602	79,861	-8,57909
1063,96	300,00	3,599	79,801	16,9633
1068,71	300,00	3,596	79,742	-7,14959
1073,46	300,00	3,594	79,683	-4,19136
1078,21	300,00	3,591	79,622	24,9546
1082,96	300,00	3,589	79,575	3,10423
1087,71	300,00	3,586	79,513	-23,1018
1092,46	300,00	3,584	79,458	-16,2775
1097,21	300,00	3,581	79,397	12,0648
1101,96	300,00	3,579	79,351	24,5549
1106,71	300,00	3,576	79,290	0,821951
1111,46	300,00	3,573	79,233	-27,4096
1116,21	300,00	3,571	79,177	-27,2371
1120,96	300,00	3,568	79,116	12,9058
1125,71	300,00	3,566	79,063	17,7088
1130,46	300,00	3,563	79,006	6,70361
1135,21	300,00	3,561	78,954	28,1523
1139,96	300,00	3,559	78,904	25,0635
1144,71	300,00	3,556	78,848	0,163214
1149,46	300,00	3,554	78,804	-10,9552
1154,21	300,00	3,552	78,751	-13,4238
1158,96	300,00	3,549	78,693	-17,9517
1163,71	300,00	3,547	78,637	-1,92643
1168,46	300,00	3,544	78,571	1,56329
1173,21	300,00	3,542	78,528	-7,73016
1177,96	300,00	3,539	78,474	6,93404
1182,71	300,00	3,537	78,423	25,7037
1187,46	300,00	3,535	78,372	17,3249
1192,21	300,00	3,533	78,328	-8,44287
1196,96	300,00	3,530	78,264	0,396988
1201,71	300,00	3,527	78,212	-15,4413
1206,46	300,00	3,525	78,154	-10,9091
1211,21	300,00	3,522	78,092	-17,2147
1215,96	300,00	3,520	78,051	-6,89330
1220,71	300,00	3,517	77,987	21,0075
1225,46	300,00	3,515	77,941	27,4580
1230,21	300,00	3,513	77,892	18,7283
1234,96	300,00	3,510	77,837	-3,01478
1239,71	300,00	3,508	77,783	-24,0914
1244,46	300,00	3,505	77,727	-19,1446
1249,21	300,00	3,503	77,678	-20,9043
1253,96	300,00	3,501	77,622	0,633107
1258,71	300,00	3,498	77,567	-0,0114745
1263,46	300,00	3,496	77,511	-8,04754e-3
1268,21	320,11	3,494	77,462	-0,0556793
1272,96	366,27	3,438	76,220	-0,375899
1277,71	414,46	2,465	54,659	-0,634440
1282,46	462,09	0,101	2,237	-0,497258
1287,21	509,75	0,038	0,836	-0,0854083
1291,96	557,37	0,036	0,803	-1,08716e-3
1296,71	604,98	0,036	0,795	8,89879e-5
1301,46	652,57	0,036	0,807	4,78855e-4
1306,21	700,15	0,038	0,844	7,44923e-4
1310,96	747,72	0,039	0,875	8,01336e-4
1314,88	786,93	0,041	0,916	8,99888e-4

File: F1_000001 -temp_104 AMU_XIC
Time	Ion Current
min	mA
0.00	1.00000e-13
4.52	1.00000e-13
9.05	1.00000e-13
13.58	1.00000e-13
18.11	1.00000e-13
22.63	1.00000e-13
27.16	1.00000e-13
31.68	1.00000e-13
36.21	1.00000e-13
40.73	1.00000e-13
45.26	1.00000e-13
49.79	1.00000e-13
54.31	1.00000e-13
58.84	1.00000e-13
63.37	1.00000e-13
67.90	1.00000e-13
72.42	2.54878e-6
76.95	1.00000e-13
81.47	1.11219e-5
86.00	6.60365e-6
90.53	2.74573e-5
95.05	3.31341e-5
99.58	6.37194e-6
104.10	1.00000e-13
108.63	9.38413e-6
113.15	1.00000e-13
117.68	1.00000e-13
122.21	3.97377e-5
126.73	1.00000e-13
131.26	2.12012e-5
135.79	9.38413e-6
140.32	1.07744e-5
144.84	1.00000e-13
149.37	7.04389e-5
153.89	9.03657e-6
158.42	2.25914e-5
162.94	1.50610e-6
167.47	1.00000e-13
172.00	1.00000e-13
176.52	2.32865e-5
181.05	2.59512e-5
185.57	1.00000e-13
190.10	1.00000e-13
194.63	9.26828e-7
199.15	1.00000e-13
203.68	1.00000e-13
208.21	7.87804e-6
212.73	1.00000e-13
217.26	1.00000e-13
221.79	1.00000e-13
226.31	1.00000e-13
230.84	1.94634e-5
235.36	1.00000e-13
239.89	2.78048e-5
244.42	1.84207e-5
248.94	1.00000e-13
253.47	1.00000e-13
258.00	3.24390e-6
262.52	1.27439e-6
267.05	1.00000e-13
271.57	1.00000e-13
276.10	5.09755e-6
280.63	2.53719e-5
285.15	4.28658e-6
289.68	1.00000e-13
294.20	8.57316e-6
298.73	1.00000e-13
303.26	1.00000e-13
307.79	1.00000e-13
312.31	2.68780e-5
316.84	1.14695e-5
321.36	8.34145e-6
325.89	1.00000e-13
330.41	1.00000e-13
334.94	2.03902e-5
339.47	1.00000e-13
343.99	1.00000e-13
348.52	1.00000e-13
353.04	1.96951e-6
357.57	1.00000e-13
362.10	1.00000e-13
366.62	1.00000e-13
371.15	1.00000e-13
375.68	1.00000e-13
380.20	1.00000e-13
384.73	1.00000e-13
389.25	1.00000e-13
393.78	1.35549e-5
398.31	1.00000e-13
402.83	1.00000e-13
407.36	5.32926e-6
411.89	1.00000e-13
416.41	1.00000e-13
420.94	1.00000e-13
425.46	1.00000e-13
429.99	1.00000e-13
434.52	1.00000e-13
439.04	1.00000e-13
443.57	1.00000e-13
448.09	1.00000e-13
452.62	1.00000e-13
457.15	1.00000e-13
461.67	1.00000e-13
466.20	1.00000e-13
470.73	1.00000e-13
475.25	1.00000e-13
479.78	1.00000e-13
484.30	1.00000e-13
488.83	1.00000e-13
493.36	1.00000e-13
497.88	1.00000e-13
502.41	1.00000e-13
506.94	1.00000e-13
511.46	1.00000e-13
515.99	1.62195e-6
520.51	1.00000e-13
525.04	1.00000e-13
529.57	8.22560e-6
534.09	1.00000e-13
538.62	1.00000e-13
543.14	1.00000e-13
547.67	1.00000e-13
552.20	1.00000e-13
556.72	1.00000e-13
561.25	1.00000e-13
565.78	1.00000e-13
570.30	1.00000e-13
574.83	1.00000e-13
579.36	1.00000e-13
583.88	1.00000e-13
588.41	1.00000e-13
592.93	1.00000e-13
597.46	1.00000e-13
601.99	1.00000e-13
606.51	1.00000e-13
611.04	1.00000e-13
615.56	1.00000e-13
620.09	1.00000e-13
624.62	1.00000e-13
629.14	1.00000e-13
633.67	1.00000e-13
638.20	1.00000e-13
642.72	1.00000e-13
647.25	1.00000e-13
651.78	1.00000e-13
656.30	1.00000e-13
660.83	1.00000e-13
665.35	1.00000e-13
669.88	1.00000e-13
674.41	7.41462e-6
678.93	1.00000e-13
683.46	1.00000e-13
687.99	1.00000e-13
692.51	1.14695e-5
697.04	1.00000e-13
701.57	1.00000e-13
706.09	1.00000e-13
710.62	1.00000e-13
715.14	1.00000e-13
719.67	1.00000e-13
724.20	1.00000e-13
728.72	1.00000e-13
733.25	1.00000e-13
737.77	9.03657e-6
742.30	1.00000e-13
746.83	1.00000e-13
751.35	1.00000e-13
755.88	1.00000e-13
760.41	1.00000e-13
764.93	1.00000e-13
769.46	1.00000e-13
773.98	1.00000e-13
778.51	1.00000e-13
783.03	1.00000e-13
787.56	1.00000e-13
792.09	1.00000e-13
796.62	1.00000e-13
801.14	1.00000e-13
805.67	1.00000e-13
810.19	1.00000e-13
814.72	1.04268e-6
819.25	1.00000e-13
823.77	1.32073e-5
828.30	1.00000e-13
832.82	1.00000e-13
837.35	1.00000e-13
841.88	1.00000e-13
846.40	1.00000e-13
850.93	2.30548e-5
855.45	1.00000e-13
859.98	1.65670e-5
864.51	1.00000e-13
869.04	1.00000e-13
873.56	1.00000e-13
878.09	1.00000e-13
882.61	1.00000e-13
887.14	1.00000e-13
891.66	1.00000e-13
896.19	1.00000e-13
900.72	1.00000e-13
905.24	1.00000e-13
909.77	1.00000e-13
914.30	1.00000e-13
918.82	1.00000e-13
923.35	1.00000e-13
927.88	1.00000e-13
932.40	4.17073e-6
936.93	1.00000e-13
941.45	1.00000e-13
945.98	1.00000e-13
950.50	1.00000e-13
955.03	3.84634e-5
959.56	1.00000e-13
964.08	1.00000e-13
968.61	1.00000e-13
973.14	2.80365e-5
977.66	1.00000e-13
982.19	1.00000e-13
986.72	1.00000e-13
991.24	1.00000e-13
995.77	1.00000e-13
1000.29	1.00000e-13
1004.82	1.00000e-13
1009.35	1.00000e-13
1013.87	1.00000e-13
1018.40	1.00000e-13
1022.93	1.00000e-13
1027.45	1.00000e-13
1031.98	1.00000e-13
1036.50	1.00000e-13
1041.03	1.00000e-13
1045.56	1.00000e-13
1050.08	1.00000e-13
1054.61	3.93902e-6
1059.13	1.00000e-13
1063.66	1.00000e-13
1068.19	1.00000e-13
1072.71	1.00000e-13
1077.24	7.64633e-6
1081.76	1.00000e-13
1086.29	1.00000e-13
1090.82	2.54878e-6
1095.34	1.00000e-13
1099.87	1.00000e-13
1104.40	1.00000e-13
1108.92	1.00000e-13
1113.45	1.00000e-13
1117.97	1.00000e-13
1122.50	1.00000e-13
1127.03	1.00000e-13
1131.55	1.00000e-13
1136.08	6.60365e-6
1140.60	1.00000e-13
1145.13	4.98170e-6
1149.66	1.00000e-13
1154.18	1.00000e-13
1158.71	1.00000e-13
1163.24	1.00000e-13
1167.76	1.00000e-13
1172.29	1.00000e-13
1176.82	1.00000e-13
1181.34	1.00000e-13
1185.87	1.96951e-5
1190.39	1.00000e-13
1194.92	1.00000e-13
1199.45	1.00000e-13
1203.97	1.00000e-13
1208.50	1.00000e-13
1213.03	1.00000e-13
1217.55	1.00000e-13
1222.08	1.00000e-13
1226.61	1.00000e-13
1231.13	1.00000e-13
1235.66	3.59146e-6
1240.18	1.00000e-13
1244.71	6.02438e-6
1249.23	1.00000e-13
1253.76	1.00000e-13
1258.29	1.00000e-13
1262.81	1.00000e-13
1267.34	1.00000e-13
1271.87	1.08091e-4
1276.39	4.90952e-3
1280.92	0.0369720
1285.44	2.88800e-3
1289.97	2.13402e-4
1294.50	5.78109e-5
1299.02	9.26828e-7
1303.55	1.00000e-13
1308.08	1.00000e-13
1312.60	1.00000e-13
1314.54	1.00000e-13

File: F2.txt
Filename	F2
Instrument name
Operator	Gwenael
rundate	2025-02-10
Sample name	F2
[step]
Step 1
Time	Temperature	Weight	Weight	Deriv. Weight
min	°C	mg	%	% / °C
0.02	26.50	2.993	100.055	1.90968e-3
4.71	41.01	3.001	100.330	-2.81325e-5
9.46	64.11	3.000	100.304	-1.60922e-3
14.21	87.54	2.998	100.244	-5.19192e-3
18.96	103.02	2.993	100.076	-0.0114239
23.71	100.64	2.988	99.904	-6.22526e-3
28.46	110.12	2.989	99.927	-1.39781e-3
33.21	132.89	2.988	99.901	-1.59925e-3
37.96	156.76	2.987	99.861	-2.62332e-3
42.71	180.63	2.983	99.747	-3.14284e-3
47.46	204.40	2.982	99.687	-2.53018e-3
52.21	228.16	2.980	99.639	-1.80380e-3
56.96	251.97	2.980	99.616	-2.21733e-3
61.71	275.75	2.977	99.544	-5.68541e-3
66.46	298.50	2.972	99.361	-0.0130114
71.21	301.45	2.964	99.091	-0.0312044
75.96	299.67	2.957	98.876	0.219219
80.71	300.00	2.951	98.679	-9.90945e-3
85.46	300.04	2.946	98.492	-0.991482
90.21	299.98	2.940	98.286	4.82448
94.96	300.00	2.934	98.079	-13.5511
99.71	300.00	2.927	97.875	0.0141498
104.46	300.00	2.921	97.662	-26.6186
109.21	300.00	2.915	97.456	-51.8248
113.96	300.00	2.909	97.245	56.7128
118.71	300.00	2.902	97.030	-11.9244
123.46	300.00	2.896	96.810	-14.9939
128.21	300.00	2.890	96.608	58.8489
132.96	300.00	2.883	96.394	60.0804
137.71	300.00	2.876	96.170	-78.3531
142.46	300.00	2.870	95.948	-86.4260
147.21	300.00	2.864	95.755	-100.334
151.96	300.00	2.858	95.547	55.6649
156.71	300.00	2.852	95.346	59.9487
161.46	300.00	2.847	95.195	44.3861
166.21	300.00	2.841	94.970	-11.2269
170.96	300.00	2.834	94.762	102.532
175.71	300.00	2.828	94.552	-47.5234
180.46	300.00	2.822	94.366	-61.2644
185.21	300.00	2.817	94.166	-24.7558
189.96	300.00	2.811	93.975	-12.0443
194.71	300.00	2.805	93.779	40.6505
199.46	300.00	2.799	93.592	-2.32012
204.21	300.00	2.793	93.380	-16.7658
208.96	300.00	2.788	93.212	-13.8027
213.71	300.00	2.782	93.022	104.308
218.46	300.00	2.777	92.830	-54.2655
223.21	300.00	2.771	92.651	-52.7065
227.96	300.00	2.766	92.482	-75.9467
232.71	300.00	2.761	92.300	-7.61235
237.46	300.00	2.756	92.140	-33.2865
242.21	300.00	2.751	91.960	-26.4987
246.96	300.00	2.746	91.798	-72.5823
251.71	300.00	2.741	91.641	23.0652
256.46	300.00	2.736	91.484	67.6701
261.21	300.00	2.732	91.333	82.0934
265.96	300.00	2.727	91.183	-12.4487
270.71	300.00	2.722	91.023	-11.2851
275.46	300.00	2.719	90.897	-64.2201
280.21	300.00	2.714	90.754	20.9104
284.96	300.00	2.710	90.619	31.5287
289.71	300.00	2.706	90.479	6.27826
294.46	300.00	2.703	90.356	-50.4823
299.21	300.00	2.699	90.226	-41.7278
303.96	300.00	2.695	90.114	0.228586
308.71	300.00	2.691	89.983	-2.18213
313.46	300.00	2.688	89.860	45.4120
318.21	300.00	2.684	89.736	4.96189
322.96	300.00	2.680	89.618	-68.7174
327.71	300.00	2.677	89.507	32.8549
332.46	300.00	2.673	89.380	19.0821
337.21	300.00	2.669	89.246	-35.3026
341.96	300.00	2.667	89.151	-60.8006
346.71	300.00	2.663	89.043	46.4953
351.46	300.00	2.660	88.929	19.1094
356.21	300.00	2.656	88.800	-1.55452
360.96	300.00	2.653	88.702	-12.5364
365.71	300.00	2.650	88.609	28.2892
370.46	300.00	2.647	88.494	-17.6430
375.21	300.00	2.644	88.401	26.0424
379.96	300.00	2.641	88.311	-5.13316
384.71	300.00	2.638	88.202	-9.30932
389.46	300.00	2.635	88.102	9.15045
394.21	300.00	2.633	88.023	-0.185792
398.96	300.00	2.629	87.898	-40.2976
403.71	300.00	2.627	87.828	-55.4853
408.46	300.00	2.624	87.723	24.3426
413.21	300.00	2.621	87.626	35.4625
417.96	300.00	2.618	87.537	-2.32756
422.71	300.00	2.616	87.460	-19.9916
427.46	300.00	2.613	87.365	32.0404
432.21	300.00	2.610	87.277	23.2442
436.96	300.00	2.608	87.185	8.96138
441.71	300.00	2.605	87.099	4.69554
446.46	300.00	2.603	87.012	30.8061
451.21	300.00	2.600	86.928	28.8006
455.96	300.00	2.597	86.841	-9.46131
460.71	300.00	2.595	86.746	-19.6550
465.46	300.00	2.592	86.657	-7.16848
470.21	300.00	2.589	86.572	-13.6787
474.96	300.00	2.587	86.496	-9.38044
479.71	300.00	2.584	86.389	-21.1659
484.46	300.00	2.582	86.310	10.8884
489.21	300.00	2.579	86.231	-24.5951
493.96	300.00	2.577	86.152	40.0478
498.71	300.00	2.573	86.035	23.3660
503.46	300.00	2.571	85.971	-5.63984
508.21	300.00	2.569	85.884	-35.6443
512.96	300.00	2.566	85.802	-20.1369
517.71	300.00	2.564	85.719	28.4963
522.46	300.00	2.562	85.661	52.4016
527.21	300.00	2.559	85.558	-22.5957
531.96	300.00	2.557	85.475	-23.7866
536.71	300.00	2.554	85.400	-7.96008
541.46	300.00	2.552	85.331	24.5505
546.21	300.00	2.550	85.242	27.2932
550.96	300.00	2.547	85.151	-15.1918
555.71	300.00	2.545	85.091	-13.6729
560.46	300.00	2.542	85.001	23.7980
565.21	300.00	2.540	84.920	21.2833
569.96	300.00	2.537	84.824	-16.8623
574.71	300.00	2.535	84.766	-20.1228
579.46	300.00	2.533	84.688	-33.4185
584.21	300.00	2.531	84.617	20.1481
588.96	300.00	2.529	84.543	32.3452
593.71	300.00	2.527	84.473	20.4996
598.46	300.00	2.524	84.392	-15.0573
603.21	300.00	2.521	84.297	10.5516
607.96	300.00	2.520	84.244	-3.27201
612.71	300.00	2.517	84.167	22.9353
617.46	300.00	2.515	84.084	-22.4741
622.21	300.00	2.513	84.008	-21.4918
626.96	300.00	2.510	83.933	3.75199
631.71	300.00	2.508	83.850	16.0441
636.46	300.00	2.505	83.767	-22.5984
641.21	300.00	2.503	83.697	9.31907
645.96	300.00	2.501	83.604	19.5412
650.71	300.00	2.498	83.531	-20.6071
655.46	300.00	2.496	83.465	-48.0976
660.21	300.00	2.494	83.384	-5.19288
664.96	300.00	2.492	83.313	31.3794
669.71	300.00	2.490	83.237	10.7269
674.46	300.00	2.488	83.171	-10.3537
679.21	300.00	2.486	83.108	-2.53854
683.96	300.00	2.483	83.032	-30.4620
688.71	300.00	2.482	82.967	-25.3268
693.46	300.00	2.480	82.912	-24.1866
698.21	300.00	2.478	82.838	11.8969
702.96	300.00	2.476	82.777	21.8863
707.71	300.00	2.474	82.722	3.18737
712.46	300.00	2.472	82.651	2.63232
717.21	300.00	2.471	82.600	8.40348
721.96	300.00	2.469	82.543	-4.97416
726.71	300.00	2.467	82.478	29.8964
731.46	300.00	2.465	82.421	8.31482
736.21	300.00	2.463	82.359	-28.8625
740.96	300.00	2.461	82.295	2.11504
745.71	300.00	2.459	82.223	26.6462
750.46	300.00	2.458	82.173	-5.63995
755.21	300.00	2.456	82.104	-32.7523
759.96	300.00	2.453	82.022	-18.6328
764.71	300.00	2.452	81.980	21.1859
769.46	300.00	2.450	81.909	30.7267
774.21	300.00	2.448	81.852	12.1079
778.96	300.00	2.446	81.783	-16.5240
783.71	300.00	2.445	81.732	-23.4189
788.46	300.00	2.442	81.659	-14.6646
793.21	300.00	2.440	81.584	0.502518
797.96	300.00	2.438	81.512	-5.34354
802.71	300.00	2.436	81.442	-30.8164
807.46	300.00	2.434	81.374	1.48499
812.21	300.00	2.432	81.303	21.9543
816.96	300.00	2.430	81.246	18.0610
821.71	300.00	2.428	81.179	-23.1861
826.46	300.00	2.426	81.118	18.5373
831.21	300.00	2.425	81.063	14.1435
835.96	300.00	2.423	80.995	10.0848
840.71	300.00	2.421	80.933	-35.6510
845.46	300.00	2.419	80.862	-37.0506
850.21	300.00	2.416	80.788	-26.8400
854.96	300.00	2.414	80.725	20.9681
859.71	300.00	2.413	80.664	11.9167
864.46	300.00	2.411	80.607	19.1200
869.21	300.00	2.409	80.537	23.3074
873.96	300.00	2.407	80.475	24.6185
878.71	300.00	2.405	80.413	13.0641
883.46	300.00	2.403	80.355	5.46910
888.21	300.00	2.401	80.284	-26.2336
892.96	300.00	2.399	80.215	-31.7437
897.71	300.00	2.397	80.152	-10.5363
902.46	300.00	2.395	80.082	21.4507
907.21	300.00	2.394	80.025	27.2405
911.96	300.00	2.391	79.950	-13.5268
916.71	300.00	2.390	79.902	5.72247
921.46	300.00	2.388	79.832	18.5068
926.21	300.00	2.386	79.777	16.3802
930.96	300.00	2.384	79.700	-23.7593
935.71	300.00	2.382	79.627	-24.6143
940.46	300.00	2.379	79.554	-15.0636
945.21	300.00	2.377	79.475	9.34859
949.96	300.00	2.375	79.416	8.55303
954.71	300.00	2.373	79.346	-14.7199
959.46	300.00	2.371	79.269	26.8110
964.21	300.00	2.370	79.225	24.9795
968.96	300.00	2.368	79.159	17.6508
973.71	300.00	2.366	79.098	-8.82254
978.46	300.00	2.364	79.035	-29.6540
983.21	300.00	2.362	78.962	-43.7799
987.96	300.00	2.360	78.890	-20.2552
992.71	300.00	2.357	78.818	3.00078
997.46	300.00	2.356	78.754	-5.56546
1002.21	300.00	2.353	78.670	27.1208
1006.96	300.00	2.352	78.620	23.5282
1011.71	300.00	2.349	78.552	-17.2846
1016.46	300.00	2.348	78.494	-15.5885
1021.21	300.00	2.346	78.450	23.7570
1025.96	300.00	2.345	78.405	22.6006
1030.71	300.00	2.343	78.330	16.4094
1035.46	300.00	2.341	78.280	-7.77520
1040.21	300.00	2.339	78.213	-7.91033
1044.96	300.00	2.338	78.153	-28.8192
1049.71	300.00	2.336	78.086	-20.7339
1054.46	300.00	2.334	78.024	-32.7224
1059.21	300.00	2.332	77.958	14.4367
1063.96	300.00	2.330	77.903	-1.02059
1068.71	300.00	2.328	77.846	-11.1238
1073.46	300.00	2.326	77.781	-0.829353
1078.21	300.00	2.325	77.724	23.1162
1082.96	300.00	2.324	77.684	9.45517
1087.71	300.00	2.321	77.610	-5.80057
1092.46	300.00	2.320	77.556	-0.981099
1097.21	300.00	2.318	77.492	13.6977
1101.96	300.00	2.316	77.432	-32.8599
1106.71	300.00	2.314	77.375	-23.9938
1111.46	300.00	2.312	77.295	-21.3986
1116.21	300.00	2.310	77.229	-27.8950
1120.96	300.00	2.308	77.165	2.07544
1125.71	300.00	2.306	77.097	24.4269
1130.46	300.00	2.304	77.036	27.6661
1135.21	300.00	2.303	76.984	25.5935
1139.96	300.00	2.301	76.924	20.9691
1144.71	300.00	2.299	76.868	2.58061
1149.46	300.00	2.297	76.812	16.3565
1154.21	300.00	2.296	76.750	-26.9435
1158.96	300.00	2.294	76.681	-29.8537
1163.71	300.00	2.292	76.622	-2.59232
1168.46	300.00	2.290	76.553	31.9998
1173.21	300.00	2.288	76.505	29.9896
1177.96	300.00	2.286	76.431	-10.1990
1182.71	300.00	2.284	76.366	-12.8573
1187.46	300.00	2.283	76.332	1.91474
1192.21	300.00	2.281	76.259	36.6205
1196.96	300.00	2.279	76.205	3.97651
1201.71	300.00	2.278	76.154	-29.8739
1206.46	300.00	2.276	76.087	-13.2221
1211.21	300.00	2.274	76.019	32.9732
1215.96	300.00	2.272	75.957	22.2202
1220.71	300.00	2.270	75.890	-26.6241
1225.46	300.00	2.268	75.827	-28.7762
1230.21	300.00	2.266	75.770	-14.2950
1234.96	300.00	2.265	75.715	26.7321
1239.71	300.00	2.263	75.648	19.8128
1244.46	300.00	2.261	75.591	8.86291
1249.21	300.00	2.259	75.538	-11.0899
1253.96	300.00	2.258	75.487	24.3405
1258.71	300.00	2.256	75.434	-7.34595e-3
1263.46	300.00	2.255	75.388	-0.0100365
1268.21	322.81	2.253	75.328	-0.0793083
1272.96	369.27	2.198	73.482	-0.428530
1277.71	417.42	1.302	43.541	-0.622701
1282.46	465.03	0.049	1.628	-0.430898
1287.21	512.69	0.028	0.922	-0.0435497
1291.96	560.32	0.027	0.911	8.32868e-6
1296.71	607.92	0.028	0.942	6.70277e-4
1301.46	655.51	0.029	0.964	1.05508e-3
1306.21	703.09	0.032	1.058	1.26278e-3
1310.96	750.66	0.033	1.103	1.38652e-3
1314.54	786.53	0.034	1.153	1.35414e-3