Folder: data-visualizer/data/TGA/005d-L_M (part 9)

File: L3.txt
Filename	L3
Instrument name
Operator	Galyna
rundate	2025-02-24
Sample name	L3
[step]
Step 1
Time	Temperature	Weight	Weight	Deriv. Weight
min	°C	mg	%	% / °C
0.01	25.98	432.628	99.999	-2.13348e-5
5.21	42.88	432.625	99.998	-1.85504e-5
10.46	67.99	432.622	99.998	-3.27539e-5
15.71	94.30	432.620	99.997	-8.20688e-5
20.96	102.40	432.606	99.994	-1.72679e-4
26.21	100.86	432.605	99.994	-8.76098e-5
31.46	123.89	432.598	99.992	-7.72316e-5
36.71	149.77	432.588	99.990	-6.23152e-5
41.96	176.25	432.584	99.989	-3.47447e-5
47.21	202.52	432.579	99.988	-2.67940e-5
52.46	228.78	432.579	99.988	-1.95361e-5
57.71	255.09	432.575	99.987	-1.67043e-5
62.96	281.38	432.575	99.987	-2.92038e-5
68.21	301.24	432.571	99.986	-5.68991e-5
73.46	300.32	432.567	99.985	-9.25337e-5
78.71	299.81	432.565	99.985	2.45846e-4
83.96	300.07	432.564	99.984	-1.09350e-3
89.21	299.99	432.564	99.984	5.64543e-3
94.46	300.00	432.563	99.984	5.32071e-4
99.71	300.00	432.561	99.984	3.15650e-3
104.96	300.00	432.562	99.984	0.0192509
110.21	300.00	432.556	99.982	0.0458263
115.46	300.00	432.560	99.983	0.0858161
120.71	300.00	432.559	99.983	-0.0545312
125.96	300.00	432.557	99.983	-0.0632050
131.21	300.00	432.553	99.982	0.0511242
136.46	300.00	432.554	99.982	0.0775886
141.71	300.00	432.551	99.981	0.0502048
146.96	300.00	432.551	99.981	0.192603
152.21	300.00	432.548	99.981	0.210042
157.46	300.00	432.550	99.981	0.153090
162.71	300.00	432.545	99.980	0.106723
167.96	300.00	432.543	99.979	0.0432979
173.21	300.00	432.540	99.979	-0.0479759
178.46	300.00	432.539	99.979	-0.0222105
183.71	300.00	432.536	99.978	-0.0487440
188.96	300.00	432.530	99.976	0.0711306
194.21	300.00	432.525	99.975	0.141495
199.46	300.00	432.527	99.976	-0.0329438
204.71	300.00	432.523	99.975	-0.0702417
209.96	300.00	432.517	99.973	-0.0604753
215.21	300.00	432.524	99.975	-0.0588737
220.46	300.00	432.520	99.974	0.0539850
225.71	300.00	432.514	99.973	0.0955332
230.96	300.00	432.512	99.972	0.0782088
236.21	300.00	432.509	99.972	0.0813408
241.46	300.01	432.510	99.972	0.0383561
246.71	300.00	432.506	99.971	0.0249016
251.96	300.00	432.505	99.971	-0.0389699
257.21	300.00	432.503	99.970	0.0249910
262.46	300.00	432.502	99.970	0.0102616
267.71	300.00	432.505	99.971	0.0467093
272.96	300.00	432.497	99.969	0.134889
278.21	300.00	432.495	99.968	0.0243661
283.46	300.00	432.493	99.968	-0.0320023
288.71	300.00	432.490	99.967	0.0268922
293.96	300.00	432.491	99.967	0.0984810
299.21	300.00	432.487	99.966	-3.26033e-3
304.46	300.00	432.485	99.966	1.27657e-3
309.71	300.00	432.486	99.966	0.0888175
314.96	300.00	432.483	99.966	0.0523362
320.21	300.00	432.480	99.965	-0.0924893
325.46	300.00	432.478	99.964	-0.0214692
330.71	300.00	432.478	99.964	0.0416174
335.96	300.00	432.475	99.964	0.0597204
341.21	300.00	432.475	99.964	0.0140610
346.46	300.00	432.472	99.963	1.63461e-3
351.71	300.00	432.474	99.963	0.0183955
356.96	300.00	432.467	99.962	-0.0339231
362.21	300.00	432.468	99.962	3.63344e-3
367.46	300.00	432.467	99.962	0.0410248
372.71	300.00	432.467	99.962	0.0485940
377.96	300.00	432.464	99.961	0.0689397
383.21	300.00	432.469	99.962	0.0792322
388.46	300.00	432.466	99.962	0.0769546
393.71	300.00	432.466	99.962	0.0144507
398.96	300.00	432.462	99.961	-0.0483940
404.21	300.00	432.461	99.961	-0.0168752
409.46	300.00	432.461	99.961	0.0344039
414.71	300.00	432.462	99.961	0.0542945
419.96	300.00	432.458	99.960	0.0339477
425.21	300.00	432.456	99.959	0.0731762
430.46	300.00	432.455	99.959	0.0765739
435.71	300.00	432.455	99.959	0.102256
440.96	300.00	432.455	99.959	-0.0106857
446.21	300.00	432.450	99.958	-0.0693857
451.46	300.00	432.449	99.958	-0.0619439
456.71	300.00	432.450	99.958	0.0276708
461.96	300.00	432.452	99.958	0.0700342
467.21	300.00	432.444	99.957	0.0828236
472.46	300.00	432.446	99.957	0.0879762
477.71	300.00	432.443	99.956	0.0579625
482.96	300.00	432.445	99.957	-0.0942122
488.21	300.00	432.437	99.955	-0.102810
493.46	300.00	432.438	99.955	0.141962
498.71	300.00	432.434	99.954	0.0421853
503.96	300.00	432.433	99.954	0.0525838
509.21	300.00	432.431	99.954	0.0659705
514.46	300.00	432.434	99.954	-0.0142847
519.71	300.00	432.432	99.954	0.0259001
524.96	300.00	432.431	99.954	0.0521223
530.21	300.00	432.426	99.952	0.0326827
535.46	300.00	432.425	99.952	-0.0416922
540.71	300.00	432.424	99.952	-0.0160703
545.96	300.00	432.419	99.951	0.106941
551.21	300.00	432.421	99.951	0.112707
556.46	300.00	432.418	99.950	0.0632791
561.71	300.00	432.417	99.950	0.0422385
566.96	300.00	432.418	99.951	0.102124
572.21	300.00	432.415	99.950	0.103314
577.46	300.00	432.413	99.949	-0.0620690
582.71	300.00	432.411	99.949	-0.0648322
587.96	300.00	432.407	99.948	0.118303
593.21	300.00	432.403	99.947	0.0377548
598.46	300.01	432.405	99.948	0.0798543
603.71	300.00	432.401	99.947	0.0680655
608.96	300.00	432.402	99.947	-0.0375659
614.21	300.00	432.397	99.946	-0.100757
619.46	300.00	432.396	99.945	-0.0176777
624.71	300.00	432.395	99.945	-0.0630077
629.96	300.00	432.391	99.944	0.0425660
635.21	300.00	432.391	99.944	0.0844186
640.46	300.00	432.388	99.944	0.0673071
645.71	300.00	432.391	99.944	0.0401447
650.96	300.00	432.385	99.943	0.103808
656.21	300.00	432.386	99.943	0.106927
661.46	300.00	432.384	99.943	-0.0487859
666.71	300.00	432.381	99.942	0.0268108
671.96	300.00	432.378	99.941	-0.0359875
677.21	300.00	432.372	99.940	-0.0777661
682.46	300.00	432.371	99.940	7.57065e-3
687.71	300.00	432.372	99.940	0.0760272
692.96	300.00	432.371	99.940	0.0670350
698.21	300.00	432.370	99.939	6.21663e-3
703.46	300.00	432.366	99.938	-0.0909783
708.71	300.00	432.367	99.939	0.0555317
713.96	300.00	432.364	99.938	-1.46416e-3
719.21	300.00	432.362	99.938	-0.0890806
724.46	300.00	432.358	99.937	0.0465912
729.71	300.00	432.358	99.937	0.123695
734.96	300.00	432.355	99.936	0.142376
740.21	300.00	432.353	99.936	0.110119
745.46	300.00	432.353	99.936	0.0977101
750.71	300.00	432.352	99.935	8.99881e-3
755.96	300.00	432.353	99.936	-0.0767861
761.21	300.00	432.348	99.934	-0.0541056
766.46	300.00	432.344	99.933	0.0624590
771.71	300.00	432.344	99.933	1.68727e-3
776.96	300.00	432.343	99.933	0.0963633
782.21	300.00	432.340	99.932	0.0426035
787.46	300.00	432.339	99.932	0.0545226
792.71	300.00	432.339	99.932	-5.47604e-3
797.96	300.00	432.338	99.932	-0.128702
803.21	300.00	432.333	99.931	-0.0858815
808.46	300.00	432.331	99.930	0.0437799
813.71	300.00	432.330	99.930	0.0859639
818.96	300.00	432.327	99.930	0.124166
824.21	300.00	432.325	99.929	0.0725485
829.46	300.00	432.324	99.929	-0.0567318
834.71	300.00	432.325	99.929	0.0980398
839.96	300.00	432.321	99.928	0.105853
845.21	300.00	432.319	99.928	-0.0150533
850.46	300.00	432.318	99.927	-0.114998
855.71	300.00	432.313	99.926	-0.0752083
860.96	300.00	432.315	99.927	0.0660482
866.21	300.00	432.311	99.926	0.0855736
871.46	300.00	432.313	99.926	0.0742826
876.71	300.00	432.308	99.925	0.0847043
881.96	300.00	432.308	99.925	-9.82750e-3
887.21	300.00	432.303	99.924	-0.0793661
892.46	300.00	432.301	99.923	-0.125006
897.71	300.00	432.299	99.923	0.0760863
902.96	300.00	432.298	99.923	0.0626335
908.21	300.00	432.297	99.923	0.0949894
913.46	300.00	432.295	99.922	0.130014
918.71	300.00	432.294	99.922	0.0538361
923.96	300.00	432.293	99.922	-0.0891915
929.21	300.00	432.291	99.921	-0.112793
934.46	300.00	432.289	99.921	-0.105405
939.71	300.00	432.290	99.921	-0.0893725
944.96	300.00	432.283	99.919	0.0366733
950.21	300.00	432.281	99.919	0.0204068
955.46	300.00	432.281	99.919	0.152018
960.71	300.00	432.279	99.919	0.145717
965.96	300.00	432.281	99.919	-0.0291109
971.21	300.00	432.276	99.918	-0.126954
976.46	300.00	432.274	99.917	-0.0572199
981.71	300.00	432.272	99.917	-0.0342883
986.96	300.00	432.271	99.916	5.82052e-3
992.21	300.00	432.270	99.916	0.0269241
997.46	300.00	432.268	99.916	0.0788593
1002.71	300.00	432.267	99.916	0.120156
1007.96	299.99	432.260	99.914	0.0668171
1013.21	300.00	432.264	99.915	-0.0241863
1018.46	300.00	432.263	99.915	-0.156660
1023.71	300.00	432.254	99.913	-0.204648
1028.96	300.00	432.256	99.913	0.0315928
1034.21	300.00	432.254	99.913	0.0268102
1039.46	300.00	432.251	99.912	0.0424131
1044.71	300.00	432.250	99.912	0.0937852
1049.96	300.00	432.250	99.912	0.141785
1055.21	300.00	432.248	99.911	0.129659
1060.46	300.00	432.248	99.911	-0.149690
1065.71	300.00	432.248	99.911	0.0223292
1070.96	300.00	432.244	99.910	0.133652
1076.21	300.00	432.239	99.909	-0.0210728
1081.46	300.00	432.238	99.909	-0.151327
1086.71	300.00	432.236	99.908	-0.0614728
1091.96	300.00	432.234	99.908	0.111644
1097.21	300.00	432.232	99.908	0.162087
1102.46	300.00	432.231	99.907	0.225259
1107.71	300.00	432.229	99.907	0.121171
1112.96	300.00	432.227	99.906	-0.169815
1118.21	300.00	432.224	99.906	-0.174763
1123.46	300.00	432.223	99.905	-0.125264
1128.71	300.00	432.220	99.905	0.0223115
1133.96	300.00	432.219	99.905	0.106327
1139.21	300.00	432.218	99.904	0.132629
1144.46	300.00	432.216	99.904	0.147164
1149.71	300.00	432.214	99.903	0.186078
1154.96	300.00	432.215	99.904	-0.0956206
1160.21	300.00	432.211	99.903	-0.160320
1165.46	300.00	432.209	99.902	6.57078e-3
1170.71	300.00	432.207	99.902	0.0276896
1175.96	300.00	432.205	99.901	-0.0280884
1181.21	300.00	432.202	99.901	0.0253061
1186.46	300.00	432.198	99.900	0.0813863
1191.71	300.00	432.199	99.900	0.124053
1196.96	300.00	432.198	99.900	0.141439
1202.21	300.00	432.195	99.899	-0.0323552
1207.46	300.00	432.196	99.899	-0.122204
1212.71	300.00	432.185	99.897	-0.0838668
1217.96	300.00	432.185	99.897	0.0338159
1223.21	300.00	432.188	99.897	-0.132665
1228.46	300.00	432.186	99.897	0.0810845
1233.71	300.00	432.184	99.896	0.170988
1238.96	300.00	432.184	99.896	0.112161
1244.21	300.00	432.182	99.896	0.294022
1249.46	300.00	432.179	99.895	0.135801
1254.71	300.00	432.181	99.896	0.0846324
1259.96	300.00	432.176	99.895	-3.16482e-5
1265.21	300.26	432.176	99.894	-9.94732e-5
1270.46	342.98	432.167	99.893	-8.56415e-4
1275.71	396.09	431.988	99.851	-2.40017e-3
1280.96	448.85	430.894	99.598	-2.23664e-3
1286.21	501.50	430.832	99.584	-4.90480e-4
1291.46	554.14	430.835	99.585	4.98790e-6
1296.71	606.76	430.836	99.585	1.51431e-5
1301.96	659.35	430.844	99.587	2.12462e-5
1307.21	711.94	430.847	99.587	1.79517e-5
1312.46	764.51	430.849	99.588	1.40221e-5
1314.71	787.04	430.852	99.588	1.31465e-5

File: L3_000001 -temp_104 AMU_XIC
Time	Ion Current
min	mA
0.00	1.00000e-13
4.53	1.00000e-13
9.05	1.00000e-13
13.58	1.00000e-13
18.11	1.00000e-13
22.63	1.00000e-13
27.16	1.00000e-13
31.69	1.00000e-13
36.21	1.00000e-13
40.74	1.00000e-13
45.27	1.00000e-13
49.79	1.00000e-13
54.32	1.00000e-13
58.85	1.00000e-13
63.37	1.00000e-13
67.90	1.00000e-13
72.43	1.00000e-13
76.95	1.00000e-13
81.48	1.00000e-13
86.00	1.00000e-13
90.53	1.00000e-13
95.06	9.03657e-6
99.58	1.00000e-13
104.11	1.12378e-5
108.64	1.00000e-13
113.16	1.00000e-13
117.69	1.00000e-13
122.22	1.00000e-13
126.74	1.00000e-13
131.27	1.00000e-13
135.80	1.00000e-13
140.32	1.73780e-6
144.85	1.00000e-13
149.38	1.00000e-13
153.90	1.00000e-13
158.43	1.00000e-13
162.96	1.51768e-5
167.48	1.00000e-13
172.01	5.44511e-6
176.54	1.00000e-13
181.06	1.00000e-13
185.59	1.00000e-13
190.11	1.00000e-13
194.64	1.00000e-13
199.17	1.00000e-13
203.69	1.00000e-13
208.22	1.00000e-13
212.75	1.00000e-13
217.27	1.00000e-13
221.80	1.00000e-13
226.33	1.00000e-13
230.85	1.00000e-13
235.38	1.00000e-13
239.91	1.00000e-13
244.43	1.00000e-13
248.96	1.00000e-13
253.49	1.00000e-13
258.01	2.43292e-6
262.54	1.00000e-13
267.06	1.00000e-13
271.59	1.00000e-13
276.12	1.00000e-13
280.64	1.00000e-13
285.17	1.00000e-13
289.70	1.00000e-13
294.23	1.00000e-13
298.75	2.43292e-6
303.28	1.00000e-13
307.80	1.00000e-13
312.33	1.00000e-13
316.86	1.00000e-13
321.38	1.00000e-13
325.91	1.00000e-13
330.43	1.00000e-13
334.96	1.00000e-13
339.49	1.85366e-5
344.01	1.00000e-13
348.54	1.00000e-13
353.07	1.00000e-13
357.59	1.52927e-5
362.12	1.00000e-13
366.65	1.00000e-13
371.17	1.00000e-13
375.70	1.00000e-13
380.23	1.00000e-13
384.75	1.00000e-13
389.28	1.00000e-13
393.81	2.78048e-6
398.33	1.00000e-13
402.86	1.00000e-13
407.39	1.00000e-13
411.91	1.00000e-13
416.44	1.00000e-13
420.96	1.00000e-13
425.49	4.86585e-6
430.02	1.00000e-13
434.55	1.00000e-13
439.07	1.00000e-13
443.60	1.00000e-13
448.12	1.00000e-13
452.65	1.00000e-13
457.18	1.00000e-13
461.70	1.00000e-13
466.23	1.00000e-13
470.76	1.00000e-13
475.28	1.00000e-13
479.81	1.00000e-13
484.34	1.00000e-13
488.86	2.78048e-6
493.39	1.00000e-13
497.92	1.00000e-13
502.44	1.00000e-13
506.97	1.00000e-13
511.50	1.00000e-13
516.02	1.00000e-13
520.55	1.00000e-13
525.08	1.00000e-13
529.60	1.00000e-13
534.13	1.00000e-13
538.66	1.00000e-13
543.18	1.49451e-5
547.71	1.00000e-13
552.24	1.00000e-13
556.76	1.00000e-13
561.29	1.00000e-13
565.82	7.18292e-6
570.34	1.00000e-13
574.87	1.00000e-13
579.40	1.00000e-13
583.92	1.00000e-13
588.45	1.00000e-13
592.97	1.00000e-13
597.50	1.00000e-13
602.03	1.00000e-13
606.55	1.00000e-13
611.08	1.00000e-13
615.60	1.00000e-13
620.13	1.00000e-13
624.66	1.00000e-13
629.19	1.00000e-13
633.71	1.00000e-13
638.24	1.00000e-13
642.76	1.00000e-13
647.29	1.00000e-13
651.82	1.00000e-13
656.35	1.00000e-13
660.87	1.00000e-13
665.40	1.00000e-13
669.92	1.00000e-13
674.45	1.00000e-13
678.98	1.00000e-13
683.50	7.41462e-6
688.03	7.29877e-6
692.56	1.00000e-13
697.08	1.00000e-13
701.61	1.00000e-13
706.14	1.00000e-13
710.66	1.00000e-13
715.19	1.00000e-13
719.72	1.00000e-13
724.24	1.00000e-13
728.77	1.00000e-13
733.30	1.00000e-13
737.82	1.00000e-13
742.35	1.00000e-13
746.87	1.00000e-13
751.40	1.00000e-13
755.93	1.00000e-13
760.46	1.00000e-13
764.98	1.00000e-13
769.51	1.00000e-13
774.03	1.00000e-13
778.56	1.00000e-13
783.09	1.00000e-13
787.61	1.00000e-13
792.14	1.00000e-13
796.67	1.00000e-13
801.19	1.00000e-13
805.72	1.00000e-13
810.25	1.00000e-13
814.77	1.00000e-13
819.30	1.00000e-13
823.82	1.00000e-13
828.35	9.26828e-7
832.88	1.00000e-13
837.40	1.00000e-13
841.93	1.00000e-13
846.46	1.00000e-13
850.98	1.00000e-13
855.51	1.00000e-13
860.04	1.00000e-13
864.56	1.00000e-13
869.09	1.00000e-13
873.62	1.00000e-13
878.14	1.00000e-13
882.67	1.00000e-13
887.19	1.00000e-13
891.72	1.00000e-13
896.25	1.00000e-13
900.77	1.00000e-13
905.30	1.00000e-13
909.83	1.00000e-13
914.35	1.00000e-13
918.88	1.00000e-13
923.41	1.00000e-13
927.93	1.00000e-13
932.46	1.00000e-13
936.99	1.00000e-13
941.51	1.00000e-13
946.04	1.00000e-13
950.57	1.00000e-13
955.10	1.00000e-13
959.62	1.00000e-13
964.15	1.00000e-13
968.67	1.00000e-13
973.20	1.00000e-13
977.72	1.00000e-13
982.25	1.00000e-13
986.78	1.00000e-13
991.31	1.00000e-13
995.83	1.00000e-13
1000.36	1.00000e-13
1004.88	1.00000e-13
1009.41	1.00000e-13
1013.94	1.00000e-13
1018.46	1.00000e-13
1022.99	1.00000e-13
1027.52	1.00000e-13
1032.04	1.00000e-13
1036.57	1.00000e-13
1041.10	1.00000e-13
1045.62	1.00000e-13
1050.15	1.00000e-13
1054.68	1.00000e-13
1059.20	1.00000e-13
1063.73	1.00000e-13
1068.26	1.00000e-13
1072.78	1.00000e-13
1077.31	1.00000e-13
1081.84	1.00000e-13
1086.36	1.00000e-13
1090.89	1.00000e-13
1095.42	1.00000e-13
1099.94	1.00000e-13
1104.47	1.00000e-13
1108.99	1.00000e-13
1113.52	1.00000e-13
1118.05	1.00000e-13
1122.58	4.05487e-6
1127.10	1.00000e-13
1131.63	1.00000e-13
1136.15	1.00000e-13
1140.68	6.37194e-6
1145.21	1.00000e-13
1149.74	1.00000e-13
1154.26	1.00000e-13
1158.79	1.00000e-13
1163.31	1.00000e-13
1167.84	1.00000e-13
1172.37	1.00000e-13
1176.89	1.00000e-13
1181.42	1.00000e-13
1185.94	1.00000e-13
1190.47	1.00000e-13
1195.00	1.00000e-13
1199.52	1.00000e-13
1204.05	1.00000e-13
1208.58	1.00000e-13
1213.10	1.00000e-13
1217.63	1.00000e-13
1222.16	1.00000e-13
1226.68	1.00000e-13
1231.21	1.00000e-13
1235.74	1.00000e-13
1240.26	1.00000e-13
1244.79	1.00000e-13
1249.32	1.00000e-13
1253.84	1.00000e-13
1258.37	1.00000e-13
1262.90	1.00000e-13
1267.42	1.00000e-13
1271.95	1.00000e-13
1276.48	8.19084e-5
1281.00	1.10061e-3
1285.53	1.37588e-3
1290.05	1.06550e-3
1294.58	9.21383e-4
1299.11	7.87688e-4
1303.64	7.14005e-4
1308.16	6.64536e-4
1312.69	5.33274e-4
1314.30	5.48798e-4

File: L4-corrected.txt
Filename	L3
Instrument name
Operator	Galyna
rundate	2025-02-24
Sample name	L3
[step]
Step 1
Time	Temperature	Weight	Weight	Deriv. Weight
min	°C	mg	%	% / °C
0.01	26.54	1.644	100	-4.21825E-05
4.71	40.93	1.635	99.4526	-3.15395E-05
9.46	64.02	1.634	99.3917	-3.38331E-05
14.21	87.38	1.635	99.4526	-5.25879E-05
18.96	103.04	1.63	99.1484	-0.000100243
23.71	100.58	1.624	98.7835	-4.94215E-05
28.46	110.1	1.621	98.601	-1.67963E-05
33.21	132.84	1.621	98.601	-1.91218E-05
37.96	156.71	1.618	98.4185	-2.47099E-05
42.71	180.59	1.614	98.1752	-2.52308E-05
47.46	204.36	1.616	98.2968	-2.80873E-05
52.21	228.13	1.611	97.9927	-0.000030067
56.96	251.92	1.607	97.7494	-3.32991E-05
61.71	275.71	1.604	97.5669	-4.26017E-05
66.46	298.52	1.599	97.2628	-6.67457E-05
71.21	301.42	1.595	97.0195	-0.000119822
75.96	299.67	1.593	96.8978	0.000527947
80.71	300.01	1.591	96.7762	-0.000242435
85.46	300.03	1.588	96.5937	-0.00191334
90.21	299.98	1.587	96.5328	0.0108604
94.96	300	1.587	96.5328	-0.0261471
99.71	299.99	1.583	96.2895	-0.0426593
104.46	300	1.583	96.2895	-0.0362315
109.21	300	1.577	95.9246	0.11071
113.96	300	1.579	96.0462	0.209565
118.71	300	1.563	95.073	-0.0729436
123.46	300	1.56	94.8905	0.337548
128.21	300	1.556	94.6472	-0.202362
132.96	300	1.556	94.6472	-0.172258
137.71	300	1.554	94.5255	-0.0503343
142.46	300	1.551	94.3431	0.254702
147.21	300	1.546	94.0389	0.0548534
151.96	300	1.547	94.0998	0.112889
156.71	300	1.547	94.0998	0.0475302
161.46	300	1.546	94.0389	0.104121
166.21	300	1.548	94.1606	0.145034
170.96	300	1.543	93.8564	0.120831
175.71	300	1.54	93.674	-0.0972695
180.46	300	1.54	93.674	-0.092808
185.21	300	1.539	93.6131	-0.190259
189.96	300	1.534	93.309	-0.0176737
194.71	300	1.534	93.309	0.0381981
199.46	300	1.536	93.4307	0.10066
204.21	300	1.531	93.1265	0.0837259
208.96	300	1.531	93.1265	0.0456675
213.71	300	1.531	93.1265	-0.0614
218.46	300	1.528	92.944	-0.114156
223.21	300	1.528	92.944	-0.0357013
227.96	300	1.523	92.6399	-0.0403652
232.71	300	1.521	92.5182	0.111995
237.46	300	1.52	92.4574	0.069359
242.21	300	1.52	92.4574	0.0132378
246.96	300	1.519	92.3966	0.0225168
251.71	300	1.516	92.2141	0.109928
256.46	300	1.515	92.1533	0.0959928
261.21	300	1.515	92.1533	0.0394916
265.96	300	1.513	92.0316	-0.0804662
270.71	300	1.512	91.9708	-6.56856E-05
275.46	300	1.51	91.8491	0.121874
280.21	300	1.507	91.6667	0.10993
284.96	300	1.508	91.7275	0.0231175
289.71	300	1.508	91.7275	-0.0302976
294.46	300.01	1.504	91.4842	0.028373
299.21	300	1.507	91.6667	-0.00114239
303.96	300	1.503	91.4234	0.0259915
308.71	300	1.505	91.545	-0.0613282
313.46	300	1.498	91.1192	0.0542978
318.21	300	1.501	91.3017	0.0807998
322.96	300	1.498	91.1192	-0.0111488
327.71	300	1.493	90.8151	-0.0844436
332.46	300	1.493	90.8151	-0.0319761
337.21	300	1.492	90.7543	0.0934681
341.96	300	1.489	90.5718	0.0452574
346.71	300	1.485	90.3285	0.034159
351.46	300	1.488	90.5109	-0.00435676
356.21	300	1.488	90.5109	-0.00194234
360.96	300	1.487	90.4501	0.121868
365.71	300	1.485	90.3285	0.126623
370.46	300	1.482	90.146	0.100281
375.21	300	1.481	90.0852	0.107281
379.96	300	1.477	89.8418	0.114499
384.71	300	1.478	89.9027	0.0240772
389.46	300	1.476	89.781	-0.0505622
394.21	300	1.474	89.6594	-0.151738
398.96	300	1.473	89.5985	-0.113712
403.71	300	1.466	89.1727	0.150595
408.46	300	1.465	89.1119	0.138415
413.21	300	1.466	89.1727	0.069476
417.96	300	1.467	89.2336	-0.100073
422.71	300	1.459	88.747	0.016434
427.46	300	1.463	88.9903	0.0564684
432.21	300	1.458	88.6861	-0.0184283
436.96	300	1.459	88.747	0.0514931
441.71	300	1.453	88.382	0.056907
446.46	300	1.454	88.4428	0.152009
451.21	300	1.454	88.4428	0.136362
455.96	300	1.451	88.2603	0.0350688
460.71	300	1.451	88.2603	0.0318013
465.46	300	1.447	88.017	0.0765587
470.21	300	1.446	87.9562	0.0338622
474.96	300	1.443	87.7737	-0.074728
479.71	300	1.443	87.7737	0.0203988
484.46	300	1.44	87.5912	0.0917162
489.21	300	1.438	87.4696	0.0772862
493.96	300	1.439	87.5304	0.0762717
498.71	300	1.438	87.4696	0.143427
503.46	300	1.432	87.1046	0.0520703
508.21	300	1.434	87.2263	0.0201487
512.96	300	1.431	87.0438	0.0468709
517.71	300	1.428	86.8613	0.0285352
522.46	300	1.429	86.9221	-0.088758
527.21	300	1.425	86.6788	0.104572
531.96	300	1.426	86.7397	0.117203
536.71	300	1.422	86.4964	0.0139482
541.46	300	1.421	86.4355	0.0554366
546.21	300	1.421	86.4355	0.00883869
550.96	300	1.419	86.3139	-0.027347
555.71	300	1.416	86.1314	0.0757505
560.46	300	1.418	86.253	0.15448
565.21	300	1.415	86.0706	0.0328882
569.96	300	1.413	85.9489	0.0246761
574.71	300	1.408	85.6448	-0.0805154
579.46	300	1.411	85.8273	0.0771853
584.21	300	1.412	85.8881	0.119196
588.96	300	1.409	85.7056	0.0129616
593.71	300	1.406	85.5231	-0.156831
598.46	300	1.403	85.3406	-0.052116
603.21	300	1.402	85.2798	0.0116762
607.96	300	1.402	85.2798	0.0475698
612.71	300	1.399	85.0973	0.0474715
617.46	300	1.398	85.0365	0.0999189
622.21	300	1.397	84.9757	0.0635872
626.96	300	1.396	84.9148	0.00616359
631.71	300	1.392	84.6715	-0.106758
636.46	300	1.393	84.7324	-0.127484
641.21	300	1.391	84.6107	-0.0482829
645.96	300	1.39	84.5499	0.0726027
650.71	300	1.389	84.4891	0.0568279
655.46	300	1.391	84.6107	0.0428589
660.21	300	1.389	84.4891	0.0081074
664.96	300	1.388	84.4282	-0.0784175
669.71	300	1.386	84.3066	-0.121087
674.46	300	1.385	84.2457	-0.00187735
679.21	300	1.381	84.0024	0.146294
683.96	300	1.382	84.0633	0.086441
688.71	300	1.383	84.1241	0.0651075
693.46	300	1.382	84.0633	0.101411
698.21	300	1.382	84.0633	0.0868066
702.96	300	1.38	83.9416	-0.0517429
707.71	300	1.379	83.8808	-0.130102
712.46	300	1.375	83.6375	-0.16558
717.21	300	1.375	83.6375	-0.0755536
721.96	300	1.372	83.455	0.101347
726.71	300	1.371	83.3942	0.0980357
731.46	300	1.371	83.3942	0.0783236
736.21	300	1.37	83.3333	0.0943425
740.96	300	1.369	83.2725	0.0341493
745.71	300	1.37	83.3333	-0.0886443
750.46	300	1.366	83.09	-0.150872
755.21	300	1.363	82.9075	-0.116184
759.96	300	1.364	82.9684	-0.0412235
764.71	300	1.36	82.7251	0.110182
769.46	300	1.358	82.6034	0.0355503
774.21	300	1.356	82.4818	0.136522
778.96	300	1.355	82.4209	0.150816
783.71	300	1.356	82.4818	0.12461
788.46	300	1.355	82.4209	-0.0330482
793.21	300	1.354	82.3601	-0.175904
797.96	300	1.352	82.2384	-0.0352498
802.71	300	1.352	82.2384	0.050324
807.46	300	1.349	82.056	-0.00328082
812.21	300	1.347	81.9343	-0.0410102
816.96	300	1.347	81.9343	0.0828004
821.71	300	1.346	81.8735	0.0750241
826.46	300	1.346	81.8735	0.051776
831.21	300	1.343	81.691	-0.12718
835.96	300	1.341	81.5693	-0.15698
840.71	300	1.341	81.5693	-0.0503275
845.46	300	1.336	81.2652	0.119407
850.21	300	1.34	81.5085	0.0711382
854.96	300	1.335	81.2044	0.0282293
859.71	300	1.335	81.2044	0.030567
864.46	300	1.333	81.0827	0.00273077
869.21	300	1.33	80.9002	0.00412225
873.96	300	1.327	80.7178	-0.174781
878.71	300	1.328	80.7786	-0.0843562
883.46	300	1.327	80.7178	0.0650913
888.21	300	1.324	80.5353	0.0696372
892.96	300	1.323	80.4745	0.045396
897.71	300	1.323	80.4745	0.0378243
902.46	300	1.321	80.3528	0.0176448
907.21	300	1.321	80.3528	-0.114826
911.96	300	1.318	80.1703	-0.116624
916.71	300	1.315	79.9878	-0.173603
921.46	300	1.315	79.9878	0.0992239
926.21	300	1.314	79.927	0.0472269
930.96	300	1.314	79.927	0.106155
935.71	300	1.312	79.8054	0.059958
940.46	300	1.31	79.6837	0.0725947
945.21	300	1.309	79.6229	0.0502186
949.96	300	1.312	79.8054	0.129621
954.71	300	1.303	79.2579	-0.0952526
959.46	300	1.304	79.3187	-0.0771696
964.21	300	1.303	79.2579	-0.0952817
968.96	300	1.304	79.3187	0.0355282
973.71	300	1.302	79.1971	0.0441586
978.46	300	1.303	79.2579	0.0615225
983.21	300	1.298	78.9538	0.0394427
987.96	300	1.297	78.8929	0.0532261
992.71	300	1.299	79.0146	-0.158092
997.46	300	1.294	78.7105	-0.143011
1002.21	300	1.293	78.6496	-0.173391
1006.96	300	1.29	78.4672	0.0710854
1011.71	300	1.288	78.3455	-0.0120881
1016.46	300	1.289	78.4063	0.0620229
1021.21	300	1.288	78.3455	0.0547879
1025.96	300	1.287	78.2847	0.0729533
1030.71	300	1.286	78.2238	0.138641
1035.46	300	1.284	78.1022	0.105833
1040.21	300	1.282	77.9805	-0.227222
1044.96	300	1.28	77.8589	-0.194251
1049.71	300	1.279	77.7981	-0.0215845
1054.46	300	1.277	77.6764	0.107011
1059.21	300	1.276	77.6156	-0.0159477
1063.96	300	1.274	77.4939	0.0121706
1068.71	300	1.273	77.4331	0.0537279
1073.46	300	1.274	77.4939	0.0867784
1078.21	300	1.271	77.3114	0.107983
1082.96	300	1.27	77.2506	-0.226315
1087.71	300	1.268	77.129	-0.244641
1092.46	300	1.267	77.0681	-0.134387
1097.21	300	1.268	77.129	0.0889728
1101.96	300	1.263	76.8248	0.115727
1106.71	300	1.26	76.6423	0.0818933
1111.46	300	1.26	76.6423	-0.10322
1116.21	300	1.259	76.5815	-0.114887
1120.96	300	1.257	76.4599	-0.111455
1125.71	300	1.257	76.4599	0.0382771
1130.46	300	1.254	76.2774	0.0431774
1135.21	300	1.254	76.2774	0.0563949
1139.96	300	1.254	76.2774	0.00971435
1144.71	300	1.251	76.0949	-0.0970301
1149.46	300	1.249	75.9732	0.0480752
1154.21	300	1.249	75.9732	0.0676949
1158.96	300	1.246	75.7908	-0.0290051
1163.71	300	1.245	75.7299	-0.0867392
1168.46	300	1.249	75.9732	0.0997271
1173.21	300	1.245	75.7299	0.131344
1177.96	300	1.241	75.4866	0.1503
1182.71	300	1.241	75.4866	0.0193563
1187.46	300	1.24	75.4258	0.0382237
1192.21	300	1.234	75.0608	0.0648971
1196.96	300	1.238	75.3041	0.0376221
1201.71	300	1.237	75.2433	-0.10142
1206.46	300	1.234	75.0608	-0.099636
1211.21	300	1.232	74.9392	0.0372906
1215.96	300	1.233	75	-0.0520235
1220.71	300	1.231	74.8783	-0.068163
1225.46	300	1.23	74.8175	0.0578121
1230.21	300	1.228	74.6959	0.145415
1234.96	300	1.227	74.635	0.137066
1239.71	300	1.225	74.5134	-0.0666158
1244.46	300	1.224	74.4526	-0.153716
1249.21	300	1.222	74.3309	-0.0390121
1253.96	300	1.225	74.5134	0.011774
1258.71	300	1.217	74.0268	-2.29028E-05
1263.46	300	1.22	74.2092	-4.62877E-05
1268.21	322.81	1.217	74.0268	-0.000329778
1272.96	369.26	1.185	72.0803	-0.00161739
1277.71	417.4	0.688	41.8491	-0.00233549
1282.46	465.02	0.013	0.790754	-0.00160063
1287.21	512.68	0.009	0.547445	-0.000162374
1291.96	560.31	0.013	0.790754	4.2695E-06
1296.71	607.91	0.012	0.729927	7.78918E-06
1301.46	655.5	0.01	0.608273	1.23989E-05
1306.21	703.08	0.015	0.912409	1.85801E-05
1310.96	750.64	0.021	1.27737	2.19871E-05
1314.54	786.52			0.000021602