Folder: data-visualizer/data/TGA/005d-B (part 3)

File: P2934-S MS_104 AMU_XIC
Time	Ion Current
min	mA
0.00	1.00000e-13
4.53	1.00000e-13
9.05	1.00000e-13
13.58	1.00000e-13
18.11	1.00000e-13
22.63	1.00000e-13
27.16	1.00000e-13
31.69	1.00000e-13
36.21	1.00000e-13
40.74	1.00000e-13
45.26	1.73780e-5
49.79	1.00000e-13
54.32	2.89634e-6
58.85	1.00000e-13
63.37	1.00000e-13
67.90	2.34024e-5
72.42	1.00000e-13
76.95	1.26280e-5
81.48	2.97743e-5
86.01	1.00000e-13
90.53	1.00000e-13
95.06	1.00000e-13
99.58	1.13536e-5
104.11	6.37194e-6
108.64	4.85426e-5
113.16	1.00000e-13
117.69	2.49085e-5
122.22	3.31341e-5
126.74	1.00000e-13
131.27	1.00000e-13
135.80	1.95792e-5
140.32	8.22560e-6
144.85	4.48353e-5
149.38	5.32926e-6
153.90	3.76524e-5
158.43	1.00000e-13
162.96	1.61036e-5
167.48	1.00000e-13
172.01	1.08902e-5
176.53	1.00000e-13
181.06	1.00000e-13
185.59	1.00000e-13
190.12	1.00000e-13
194.64	3.47560e-7
199.17	1.00000e-13
203.69	1.00000e-13
208.22	1.00000e-13
212.75	1.56402e-5
217.27	3.01219e-5
221.80	1.00000e-13
226.33	1.64512e-5
230.85	1.00000e-13
235.38	1.00000e-13
239.91	1.00000e-13
244.43	1.00000e-13
248.96	1.73780e-6
253.49	4.63414e-6
258.02	1.00000e-13
262.54	1.00000e-13
267.07	1.00000e-13
271.59	1.00000e-13
276.12	1.00000e-13
280.65	3.46402e-5
285.17	1.00000e-13
289.70	2.54878e-6
294.22	2.76890e-5
298.75	1.00000e-13
303.28	1.00000e-13
307.81	1.00000e-13
312.33	1.00000e-13
316.86	1.00000e-13
321.38	1.00000e-13
325.91	1.00000e-13
330.44	1.00000e-13
334.97	1.00000e-13
339.49	1.00000e-13
344.02	1.00000e-13
348.54	1.00000e-13
353.07	4.98170e-6
357.60	1.00000e-13
362.12	1.00000e-13
366.65	1.91158e-5
371.18	1.00000e-13
375.70	1.00000e-13
380.23	1.00000e-13
384.76	1.00000e-13
389.28	1.00000e-13
393.81	1.00000e-13
398.34	1.39024e-5
402.86	1.00000e-13
407.39	1.00000e-13
411.92	1.00000e-13
416.44	1.00000e-13
420.97	1.00000e-13
425.49	1.00000e-13
430.02	1.00000e-13
434.55	1.00000e-13
439.08	1.00000e-13
443.60	1.20488e-5
448.13	1.00000e-13
452.65	1.00000e-13
457.18	1.00000e-13
461.71	1.00000e-13
466.24	1.00000e-13
470.76	1.00000e-13
475.29	1.00000e-13
479.81	1.00000e-13
484.34	1.00000e-13
488.87	1.00000e-13
493.39	1.00000e-13
497.92	1.00000e-13
502.45	1.00000e-13
506.97	1.00000e-13
511.50	1.00000e-13
516.03	1.00000e-13
520.56	1.00000e-13
525.08	1.00000e-13
529.61	1.00000e-13
534.13	1.00000e-13
538.66	1.00000e-13
543.18	1.00000e-13
547.71	1.00000e-13
552.24	1.00000e-13
556.76	1.00000e-13
561.29	1.00000e-13
565.82	1.00000e-13
570.35	1.00000e-13
574.87	1.00000e-13
579.40	1.00000e-13
583.92	1.00000e-13
588.45	4.17073e-6
592.98	1.00000e-13
597.50	1.00000e-13
602.03	1.00000e-13
606.56	1.00000e-13
611.09	1.00000e-13
615.61	1.00000e-13
620.14	1.00000e-13
624.66	1.00000e-13
629.19	1.00000e-13
633.72	2.44451e-5
638.25	1.00000e-13
642.77	1.00000e-13
647.30	1.00000e-13
651.82	1.00000e-13
656.35	1.00000e-13
660.88	1.00000e-13
665.40	1.00000e-13
669.93	1.00000e-13
674.46	1.00000e-13
678.98	1.00000e-13
683.51	1.00000e-13
688.04	1.00000e-13
692.56	1.00000e-13
697.09	1.00000e-13
701.62	1.00000e-13
706.14	1.00000e-13
710.67	1.00000e-13
715.20	1.00000e-13
719.72	9.38413e-6
724.25	1.00000e-13
728.77	1.00000e-13
733.30	1.00000e-13
737.83	1.00000e-13
742.36	1.00000e-13
746.88	1.11219e-5
751.41	1.00000e-13
755.94	1.00000e-13
760.46	1.00000e-13
764.99	1.00000e-13
769.51	1.00000e-13
774.04	5.79267e-6
778.57	1.00000e-13
783.09	1.00000e-13
787.62	1.00000e-13
792.15	4.98170e-6
796.67	1.00000e-13
801.20	1.00000e-13
805.72	1.00000e-13
810.25	1.00000e-13
814.78	1.00000e-13
819.31	1.00000e-13
823.83	1.00000e-13
828.36	1.00000e-13
832.88	1.00000e-13
837.41	1.00000e-13
841.94	1.00000e-13
846.47	1.00000e-13
850.99	1.00000e-13
855.52	1.00000e-13
860.04	1.00000e-13
864.57	1.15853e-6
869.10	1.00000e-13
873.63	1.00000e-13
878.15	1.00000e-13
882.68	1.00000e-13
887.21	1.00000e-13
891.73	1.00000e-13
896.26	1.00000e-13
900.78	1.00000e-13
905.31	1.00000e-13
909.84	1.00000e-13
914.36	1.00000e-13
918.89	1.00000e-13
923.42	1.00000e-13
927.94	1.00000e-13
932.47	1.00000e-13
937.00	1.00000e-13
941.52	1.00000e-13
946.05	1.00000e-13
950.57	3.62621e-5
955.10	1.00000e-13
959.63	1.00000e-13
964.15	1.00000e-13
968.68	1.00000e-13
973.21	1.00000e-13
977.74	1.00000e-13
982.26	1.00000e-13
986.79	1.00000e-13
991.31	1.00000e-13
995.84	1.00000e-13
1000.37	1.00000e-13
1004.89	1.00000e-13
1009.42	1.00000e-13
1013.95	1.00000e-13
1018.47	1.00000e-13
1023.00	1.00000e-13
1027.53	1.00000e-13
1032.05	1.00000e-13
1036.58	1.00000e-13
1041.11	1.00000e-13
1045.63	1.00000e-13
1050.16	1.00000e-13
1054.69	1.00000e-13
1059.21	1.00000e-13
1063.74	1.00000e-13
1068.27	1.00000e-13
1072.79	1.00000e-13
1077.32	1.00000e-13
1081.84	1.00000e-13
1086.37	1.00000e-13
1090.90	1.00000e-13
1095.43	1.00000e-13
1099.95	1.00000e-13
1104.48	1.00000e-13
1109.01	1.00000e-13
1113.53	1.00000e-13
1118.06	1.00000e-13
1122.58	1.00000e-13
1127.11	6.71950e-6
1131.64	1.00000e-13
1136.16	1.00000e-13
1140.69	1.00000e-13
1145.22	1.00000e-13
1149.74	1.00000e-13
1154.27	1.00000e-13
1158.80	1.00000e-13
1163.32	3.27865e-5
1167.85	1.00000e-13
1172.37	1.00000e-13
1176.90	1.00000e-13
1181.43	1.00000e-13
1185.96	1.00000e-13
1190.48	1.00000e-13
1195.01	3.47560e-7
1199.53	1.00000e-13
1204.06	1.00000e-13
1208.59	1.00000e-13
1213.12	1.00000e-13
1217.64	1.00000e-13
1222.17	1.00000e-13
1226.69	1.00000e-13
1231.22	1.00000e-13
1235.75	1.00000e-13
1240.28	1.00000e-13
1244.80	1.00000e-13
1249.33	1.00000e-13
1253.85	1.00000e-13
1258.38	1.00000e-13
1262.91	1.00000e-13
1267.43	1.00000e-13
1271.96	1.13003e-3
1276.49	0.0274902
1281.01	0.0469591
1285.54	6.61639e-4
1290.06	1.25469e-4
1294.59	3.61463e-5
1299.12	3.76524e-5
1303.64	1.00000e-13
1308.17	1.00000e-13
1312.70	1.00000e-13
1314.32	1.00000e-13

File: P2934-S TG.txt
Filename	P2934-S
Instrument name
Operator	Gwenael
rundate	2025-01-13
Sample name	P2934-S
[step]
Step 1
Time	Temperature	Weight	Weight	Deriv. Weight
min	°C	mg	%	% / °C
0.01	26.44	8.860	99.987	-6.78317e-5
4.73	41.00	8.879	100.201	-1.06666e-3
9.53	64.34	8.877	100.176	-1.97439e-3
14.33	88.03	8.875	100.159	-2.47590e-3
19.13	103.05	8.865	100.046	-3.55336e-3
23.93	100.51	8.858	99.971	-3.65687e-3
28.73	111.33	8.858	99.970	-3.32087e-3
33.53	134.36	8.855	99.929	-3.18675e-3
38.33	158.52	8.849	99.863	-3.33026e-3
43.13	182.63	8.838	99.745	-3.55553e-3
47.93	206.65	8.829	99.639	-3.62213e-3
52.73	230.66	8.823	99.567	-3.80087e-3
57.53	254.72	8.818	99.514	-4.77652e-3
62.33	278.75	8.809	99.414	-6.83691e-3
67.13	299.97	8.793	99.234	-0.0106031
71.93	301.07	8.773	99.009	-0.0178169
76.73	299.66	8.756	98.817	-0.0353284
81.53	300.05	8.739	98.621	0.280014
86.33	300.02	8.722	98.430	0.290908
91.13	299.99	8.705	98.243	-1.62470
95.93	300.01	8.689	98.056	8.54276
100.73	300.00	8.672	97.867	3.77273
105.53	300.00	8.656	97.686	20.9932
110.33	300.00	8.640	97.505	89.8371
115.13	300.00	8.624	97.324	-42.8000
119.93	300.00	8.608	97.141	-58.4585
124.73	300.00	8.592	96.962	-107.875
129.52	300.00	8.576	96.787	-103.388
134.33	300.00	8.560	96.609	-96.6252
139.13	300.00	8.545	96.437	55.2030
143.93	300.00	8.531	96.271	88.5597
148.73	300.00	8.515	96.094	65.0485
153.53	300.00	8.501	95.936	2.22200
158.33	300.00	8.487	95.775	4.26596
163.13	300.00	8.472	95.614	-68.5116
167.93	300.00	8.458	95.450	-130.502
172.73	300.00	8.444	95.299	-15.0730
177.53	300.00	8.431	95.148	49.3372
182.33	300.00	8.418	95.001	74.3675
187.13	300.00	8.405	94.858	84.9812
191.93	300.00	8.393	94.715	85.0200
196.73	300.00	8.380	94.574	6.97072
201.53	300.00	8.368	94.436	55.6787
206.33	300.00	8.355	94.295	-34.5092
211.13	300.00	8.343	94.157	-12.4325
215.93	300.00	8.331	94.021	-2.55578
220.73	300.00	8.319	93.887	-4.50592
225.53	300.00	8.307	93.752	-32.5695
230.33	300.00	8.296	93.621	-36.9214
235.13	300.00	8.284	93.489	-29.1057
239.93	300.00	8.273	93.364	5.80389
244.73	300.00	8.261	93.233	17.8550
249.53	300.00	8.251	93.113	4.05146
254.33	300.00	8.240	92.993	-13.0897
259.13	300.00	8.230	92.876	-47.0471
263.92	300.00	8.219	92.757	-6.18903
268.73	300.00	8.209	92.647	-12.6133
273.53	300.00	8.199	92.530	4.50839
278.33	300.00	8.189	92.420	-24.4072
283.13	300.00	8.180	92.313	-25.5074
287.93	300.00	8.170	92.206	-28.5148
292.73	300.00	8.161	92.101	-16.0372
297.53	300.00	8.152	92.000	-8.34181
302.33	300.00	8.143	91.902	-45.9898
307.13	300.00	8.135	91.803	17.4568
311.93	300.00	8.126	91.707	-2.02006
316.73	300.00	8.118	91.612	5.19644
321.53	300.00	8.110	91.521	-3.28985
326.33	300.00	8.102	91.431	10.4429
331.13	300.00	8.094	91.341	-26.2725
335.93	300.00	8.086	91.252	-17.6069
340.73	300.00	8.078	91.165	17.2177
345.53	300.00	8.071	91.080	7.02348
350.33	300.00	8.063	90.998	-21.6376
355.13	300.00	8.056	90.914	-20.5057
359.93	300.00	8.049	90.832	19.4480
364.73	300.00	8.042	90.752	-11.1530
369.53	300.00	8.034	90.672	3.65399
374.33	300.00	8.027	90.592	19.7743
379.13	300.00	8.020	90.513	19.1231
383.93	300.00	8.013	90.434	-0.279234
388.73	300.00	8.007	90.364	7.00140
393.53	300.00	8.001	90.289	-7.31174
398.33	300.00	7.994	90.212	-3.39036
403.13	300.00	7.987	90.138	0.398803
407.93	300.00	7.980	90.063	-6.17368
412.73	300.00	7.974	89.992	-0.388992
417.53	300.00	7.968	89.925	-43.2283
422.33	300.00	7.962	89.857	-16.7423
427.13	300.00	7.956	89.783	31.6770
431.93	300.00	7.949	89.711	47.2105
436.73	300.00	7.943	89.642	26.5352
441.53	300.00	7.937	89.576	5.54021
446.33	300.00	7.931	89.506	-28.6955
451.13	300.00	7.925	89.438	-30.4685
455.93	300.00	7.919	89.371	-1.34812
460.73	300.00	7.914	89.307	12.9580
465.53	300.00	7.907	89.234	13.6357
470.33	300.00	7.901	89.168	4.95914
475.13	300.00	7.896	89.104	-25.4853
479.93	300.00	7.890	89.037	-17.1179
484.73	300.00	7.883	88.968	1.74299
489.53	300.00	7.878	88.902	-7.07492
494.33	300.00	7.872	88.844	12.3224
499.13	300.00	7.866	88.776	29.1038
503.93	300.00	7.861	88.715	8.43271
508.73	300.00	7.855	88.652	-0.0966345
513.53	300.00	7.849	88.585	3.86043
518.33	300.00	7.844	88.525	-13.8317
523.13	300.00	7.838	88.459	-10.4073
527.93	300.00	7.833	88.398	32.0156
532.72	300.00	7.827	88.334	40.0337
537.53	300.00	7.822	88.274	45.0055
542.33	300.00	7.816	88.205	40.6628
547.13	300.00	7.811	88.147	-14.7473
551.93	300.00	7.805	88.081	-3.80469
556.73	300.00	7.799	88.017	-15.4186
561.53	300.00	7.794	87.955	-24.6104
566.33	300.00	7.788	87.891	-7.63595
571.13	300.00	7.782	87.827	2.04627
575.93	300.00	7.777	87.766	-17.6958
580.73	300.00	7.771	87.702	-40.9906
585.53	300.00	7.766	87.640	-52.0031
590.33	300.00	7.760	87.580	-41.9667
595.13	300.00	7.755	87.521	-41.1950
599.93	300.00	7.750	87.457	-5.11988
604.73	300.00	7.745	87.401	3.53193
609.53	300.00	7.740	87.349	9.71751
614.33	300.00	7.735	87.288	-4.48339
619.13	300.00	7.730	87.237	5.92125
623.93	300.00	7.725	87.184	-9.18328
628.73	300.00	7.721	87.131	29.2275
633.53	300.00	7.716	87.076	-1.98461
638.33	300.00	7.711	87.026	9.88570
643.13	300.00	7.707	86.975	5.00735
647.93	300.00	7.702	86.924	10.6652
652.73	300.00	7.698	86.873	20.2212
657.53	300.00	7.693	86.824	23.5156
662.33	300.00	7.688	86.767	4.56711
667.13	300.00	7.684	86.715	-7.18319
671.93	300.00	7.679	86.664	2.30999
676.73	300.00	7.675	86.611	-19.8882
681.53	300.00	7.670	86.557	-3.74023
686.33	300.00	7.665	86.506	23.9139
691.13	300.00	7.661	86.454	-4.04193
695.93	300.00	7.656	86.402	-8.81464
700.73	300.00	7.651	86.349	2.84886
705.53	300.00	7.647	86.299	6.45490
710.33	300.00	7.642	86.241	15.4598
715.13	300.00	7.637	86.190	3.91321
719.93	300.00	7.632	86.135	20.2650
724.73	300.00	7.628	86.083	-17.8394
729.53	300.00	7.623	86.029	1.27650
734.33	300.00	7.618	85.972	-8.19097
739.13	300.00	7.613	85.920	-0.459434
743.93	300.00	7.609	85.869	12.2918
748.73	300.00	7.604	85.816	-3.68973
753.53	300.00	7.600	85.764	5.46812
758.33	300.00	7.594	85.705	-3.85847
763.13	300.00	7.590	85.656	-12.2011
767.93	300.00	7.585	85.605	-20.9738
772.73	300.00	7.581	85.549	-11.6466
777.53	300.00	7.576	85.498	18.7183
782.33	300.00	7.571	85.442	10.8528
787.13	300.00	7.567	85.393	15.5083
791.93	300.00	7.562	85.339	13.1226
796.73	300.00	7.557	85.289	3.86835
801.53	300.00	7.553	85.238	-12.1388
806.33	300.00	7.549	85.190	-2.77396
811.13	300.00	7.544	85.135	-4.71400
815.93	300.00	7.539	85.078	-24.0585
820.73	300.00	7.534	85.025	-2.87581
825.53	300.00	7.530	84.974	8.61154
830.33	300.00	7.525	84.920	19.5610
835.13	300.00	7.520	84.869	7.78901
839.93	300.00	7.516	84.817	6.69940
844.73	300.00	7.511	84.765	-5.36708
849.53	300.00	7.506	84.713	-39.7011
854.33	300.00	7.502	84.662	2.71063
859.13	300.00	7.497	84.607	23.8408
863.93	300.00	7.493	84.557	38.8763
868.73	300.00	7.489	84.514	-6.24202
873.53	300.00	7.484	84.456	15.8597
878.33	300.00	7.479	84.406	-17.8427
883.13	300.00	7.475	84.358	-11.7139
887.93	300.00	7.470	84.302	-6.58849
892.73	300.00	7.465	84.249	-13.0680
897.53	300.00	7.461	84.201	1.31815
902.33	300.00	7.456	84.148	2.84824
907.13	300.00	7.451	84.093	11.0451
911.93	300.00	7.447	84.045	8.55632
916.73	300.00	7.443	83.993	29.4923
921.53	300.00	7.438	83.942	2.95089
926.33	300.00	7.433	83.883	13.3858
931.13	300.00	7.429	83.839	-3.15902
935.93	300.00	7.424	83.787	-5.55387
940.73	300.00	7.420	83.735	-23.9372
945.53	300.00	7.415	83.683	-20.1062
950.33	300.00	7.411	83.636	-9.69608
955.13	300.00	7.406	83.579	11.7061
959.93	300.00	7.401	83.529	14.4636
964.73	300.00	7.397	83.476	-2.40855
969.53	300.00	7.392	83.427	13.9819
974.33	300.00	7.388	83.375	1.57803
979.13	300.00	7.383	83.322	-22.0577
983.93	300.00	7.378	83.268	-15.1659
988.73	300.00	7.374	83.217	-31.8194
993.53	300.00	7.369	83.166	-14.1672
998.33	300.00	7.365	83.114	1.13226
1003.13	300.00	7.360	83.064	13.1490
1007.93	300.00	7.356	83.015	-3.05581
1012.73	300.00	7.352	82.965	18.7601
1017.53	300.00	7.347	82.917	2.40571
1022.33	300.00	7.342	82.862	23.7462
1027.13	300.00	7.338	82.817	20.9200
1031.93	300.00	7.334	82.767	15.0032
1036.73	300.00	7.330	82.718	16.0440
1041.53	300.00	7.325	82.667	-9.24473
1046.32	300.00	7.321	82.616	-9.77642
1051.13	300.00	7.316	82.569	-2.58179
1055.93	300.00	7.312	82.520	-2.59644
1060.73	300.00	7.307	82.468	-29.0800
1065.53	300.00	7.303	82.418	12.7300
1070.32	300.00	7.299	82.368	-7.93373
1075.13	300.00	7.294	82.318	5.62938
1079.93	300.00	7.290	82.268	50.9758
1084.73	300.00	7.285	82.217	9.62392
1089.53	300.00	7.281	82.171	-10.6321
1094.33	300.00	7.276	82.117	-9.89354
1099.13	300.00	7.272	82.070	-17.3247
1103.93	300.00	7.268	82.024	-26.2884
1108.73	300.00	7.263	81.971	-13.2109
1113.53	300.00	7.259	81.925	-5.14829
1118.33	300.00	7.255	81.872	7.98740
1123.13	300.00	7.251	81.826	18.9448
1127.93	300.00	7.246	81.777	17.9135
1132.73	300.00	7.242	81.728	15.5834
1137.53	300.00	7.238	81.681	4.15350
1142.33	300.00	7.233	81.630	-30.0687
1147.13	300.00	7.229	81.582	-41.8373
1151.93	300.00	7.224	81.529	-14.5682
1156.73	300.00	7.220	81.482	-27.6833
1161.53	300.00	7.216	81.433	10.4893
1166.33	300.00	7.212	81.387	2.63547
1171.13	300.00	7.208	81.343	15.9847
1175.93	300.00	7.203	81.284	17.8938
1180.73	300.00	7.199	81.244	8.00516
1185.53	300.00	7.195	81.194	19.0667
1190.33	300.00	7.191	81.148	22.9372
1195.13	300.00	7.187	81.103	-14.2211
1199.93	300.00	7.182	81.054	-11.1504
1204.73	300.00	7.178	81.002	0.788796
1209.53	300.00	7.174	80.956	-2.44464
1214.33	300.00	7.169	80.905	-9.22812
1219.13	300.00	7.165	80.858	14.7775
1223.93	300.00	7.160	80.809	-5.06102
1228.73	300.00	7.156	80.761	-20.6561
1233.53	300.00	7.152	80.713	1.91771
1238.33	300.00	7.148	80.665	-17.0144
1243.13	300.00	7.144	80.620	-20.4278
1247.93	300.00	7.139	80.567	-6.23743
1252.73	300.00	7.135	80.523	-0.0116622
1257.53	300.00	7.131	80.480	-0.0105520
1262.33	300.00	7.127	80.430	-0.0712474
1267.13	312.87	7.123	80.389	-0.329991
1271.93	358.65	7.068	79.766	-0.422563
1276.73	407.42	5.946	67.099	-0.411464
1281.53	455.59	0.309	3.482	-0.372940
1286.33	503.72	0.061	0.692	-0.282447
1291.13	551.85	0.061	0.689	-0.121639
1295.93	599.96	0.062	0.695	-3.11130e-3
1300.73	648.06	0.062	0.705	3.33159e-4
1305.53	696.13	0.064	0.726	4.16879e-4
1310.33	744.20	0.067	0.759	5.06295e-4
1314.53	786.25	0.070	0.793	6.12063e-4