Folder: data-visualizer/data/TGA/005d-L_M (part 11)

File: M2_000001 -temp_104 AMU_XIC
Time	Ion Current
min	mA
0.00	1.00000e-13
4.53	1.00000e-13
9.05	1.00000e-13
13.58	1.00000e-13
18.11	1.00000e-13
22.63	1.00000e-13
27.15	1.00000e-13
31.68	1.00000e-13
36.21	1.00000e-13
40.74	1.00000e-13
45.26	1.00000e-13
49.79	1.00000e-13
54.31	1.00000e-13
58.84	1.00000e-13
63.37	1.00000e-13
67.89	1.00000e-13
72.42	1.00000e-13
76.94	1.00000e-13
81.47	1.00000e-13
86.00	1.73780e-5
90.52	1.00000e-13
95.05	1.00000e-13
99.58	1.00000e-13
104.10	1.00000e-13
108.63	7.87804e-6
113.15	1.00000e-13
117.68	1.22805e-5
122.21	1.32073e-5
126.73	1.00000e-13
131.26	1.00000e-13
135.79	1.00000e-13
140.31	1.00000e-13
144.84	1.00000e-13
149.36	1.00000e-13
153.89	1.00000e-13
158.42	1.00000e-13
162.94	1.00000e-13
167.47	1.72622e-5
172.00	1.00000e-13
176.52	1.00000e-13
181.05	1.00000e-13
185.57	1.00000e-13
190.10	1.00000e-13
194.63	1.00000e-13
199.16	1.00000e-13
203.68	1.00000e-13
208.20	1.00000e-13
212.73	1.00000e-13
217.26	1.00000e-13
221.78	1.00000e-13
226.31	1.00000e-13
230.84	1.00000e-13
235.36	1.00000e-13
239.89	1.00000e-13
244.42	1.00000e-13
248.94	1.00000e-13
253.47	1.00000e-13
257.99	1.00000e-13
262.52	1.00000e-13
267.05	1.00000e-13
271.57	1.00000e-13
276.10	1.00000e-13
280.63	1.00000e-13
285.15	1.00000e-13
289.68	1.00000e-13
294.20	1.00000e-13
298.73	1.00000e-13
303.26	1.00000e-13
307.78	1.00000e-13
312.31	1.00000e-13
316.83	1.00000e-13
321.36	1.00000e-13
325.89	1.00000e-13
330.41	1.00000e-13
334.94	1.00000e-13
339.46	1.00000e-13
343.99	1.00000e-13
348.52	1.00000e-13
353.05	1.00000e-13
357.57	1.00000e-13
362.10	1.00000e-13
366.62	1.00000e-13
371.15	1.00000e-13
375.68	1.00000e-13
380.21	9.26828e-7
384.73	1.00000e-13
389.25	1.00000e-13
393.78	1.00000e-13
398.31	1.00000e-13
402.83	1.00000e-13
407.36	1.00000e-13
411.88	1.00000e-13
416.41	1.00000e-13
420.94	1.00000e-13
425.46	1.00000e-13
429.99	4.17073e-6
434.51	1.04268e-6
439.04	1.00000e-13
443.57	1.00000e-13
448.10	1.00000e-13
452.62	1.00000e-13
457.15	1.15853e-5
461.67	1.00000e-13
466.20	1.00000e-13
470.72	1.00000e-13
475.25	1.00000e-13
479.78	1.00000e-13
484.30	1.00000e-13
488.83	1.00000e-13
493.36	1.00000e-13
497.88	1.00000e-13
502.41	1.00000e-13
506.93	1.00000e-13
511.46	1.00000e-13
515.99	1.00000e-13
520.51	1.00000e-13
525.04	1.00000e-13
529.57	1.00000e-13
534.09	1.00000e-13
538.62	1.00000e-13
543.15	1.00000e-13
547.67	1.00000e-13
552.20	1.00000e-13
556.73	1.00000e-13
561.25	1.00000e-13
565.78	1.00000e-13
570.30	4.63414e-7
574.83	1.00000e-13
579.35	1.00000e-13
583.88	1.00000e-13
588.41	1.00000e-13
592.93	1.00000e-13
597.46	1.00000e-13
601.98	1.00000e-13
606.51	1.29756e-5
611.04	1.00000e-13
615.56	1.00000e-13
620.09	1.00000e-13
624.62	1.00000e-13
629.14	1.00000e-13
633.67	1.00000e-13
638.20	1.00000e-13
642.73	1.00000e-13
647.25	1.00000e-13
651.77	1.00000e-13
656.30	1.00000e-13
660.83	1.00000e-13
665.35	1.00000e-13
669.88	1.00000e-13
674.41	1.00000e-13
678.93	1.00000e-13
683.46	1.00000e-13
687.98	1.00000e-13
692.51	1.00000e-13
697.04	1.00000e-13
701.56	1.00000e-13
706.09	1.00000e-13
710.61	1.00000e-13
715.14	1.00000e-13
719.67	1.00000e-13
724.20	1.00000e-13
728.72	1.00000e-13
733.25	1.00000e-13
737.77	1.00000e-13
742.30	1.00000e-13
746.83	1.00000e-13
751.35	2.65304e-5
755.88	1.34390e-5
760.40	1.00000e-13
764.93	1.00000e-13
769.46	1.00000e-13
773.98	1.00000e-13
778.51	1.00000e-13
783.03	1.00000e-13
787.56	1.00000e-13
792.09	1.00000e-13
796.61	1.85366e-6
801.14	1.00000e-13
805.67	1.00000e-13
810.20	1.00000e-13
814.72	1.00000e-13
819.25	1.00000e-13
823.77	1.00000e-13
828.29	1.00000e-13
832.82	1.00000e-13
837.35	1.00000e-13
841.88	1.00000e-13
846.40	1.00000e-13
850.93	1.00000e-13
855.46	1.00000e-13
859.98	1.00000e-13
864.51	1.00000e-13
869.03	1.00000e-13
873.56	1.00000e-13
878.09	1.00000e-13
882.61	1.00000e-13
887.14	1.00000e-13
891.66	1.00000e-13
896.19	1.00000e-13
900.72	1.00000e-13
905.25	1.00000e-13
909.77	1.00000e-13
914.30	1.00000e-13
918.82	1.00000e-13
923.35	1.00000e-13
927.88	1.00000e-13
932.40	1.00000e-13
936.93	1.00000e-13
941.45	1.00000e-13
945.98	1.00000e-13
950.51	1.00000e-13
955.03	1.00000e-13
959.56	1.00000e-13
964.08	1.00000e-13
968.61	1.00000e-13
973.14	1.00000e-13
977.66	1.00000e-13
982.19	1.00000e-13
986.72	1.00000e-13
991.25	1.00000e-13
995.77	1.00000e-13
1000.30	1.00000e-13
1004.82	1.00000e-13
1009.35	1.00000e-13
1013.87	1.00000e-13
1018.40	1.00000e-13
1022.92	1.00000e-13
1027.45	1.00000e-13
1031.98	1.00000e-13
1036.50	7.64633e-6
1041.03	1.00000e-13
1045.56	1.00000e-13
1050.08	1.00000e-13
1054.61	1.00000e-13
1059.13	1.00000e-13
1063.66	1.00000e-13
1068.19	1.00000e-13
1072.71	1.00000e-13
1077.24	1.00000e-13
1081.77	1.00000e-13
1086.30	1.00000e-13
1090.83	1.00000e-13
1095.36	1.00000e-13
1099.87	1.00000e-13
1104.40	1.00000e-13
1108.93	1.00000e-13
1113.45	1.00000e-13
1117.98	1.00000e-13
1122.50	1.00000e-13
1127.03	1.00000e-13
1131.55	1.00000e-13
1136.08	1.00000e-13
1140.61	1.00000e-13
1145.14	1.00000e-13
1149.66	1.00000e-13
1154.19	1.00000e-13
1158.71	1.00000e-13
1163.24	1.00000e-13
1167.77	1.00000e-13
1172.30	1.00000e-13
1176.82	1.00000e-13
1181.34	1.00000e-13
1185.88	1.00000e-13
1190.40	1.00000e-13
1194.92	1.00000e-13
1199.45	1.00000e-13
1203.98	1.00000e-13
1208.50	1.00000e-13
1213.03	1.00000e-13
1217.55	1.00000e-13
1222.08	1.00000e-13
1226.61	1.00000e-13
1231.14	1.00000e-13
1235.66	1.00000e-13
1240.19	1.00000e-13
1244.71	1.00000e-13
1249.24	1.00000e-13
1253.77	1.00000e-13
1258.30	1.00000e-13
1262.82	1.00000e-13
1267.35	1.00000e-13
1271.88	1.08902e-5
1276.39	2.04018e-3
1280.92	9.54745e-3
1285.45	3.68414e-4
1289.97	1.99268e-5
1294.50	1.00000e-13
1299.03	1.00000e-13
1303.55	1.00000e-13
1308.08	1.00000e-13
1312.61	1.00000e-13
1314.54	1.00000e-13

File: styrofoam-corrected.txt
Filename	L3
Instrument name
Operator	Galyna
rundate	2025-02-24
Sample name	L3
[step]
Step 1
Time	Temperature	Weight	Weight	Deriv. Weight
min	°C	mg	%	% / °C
0.04	27.78	4.32	99.9537	-1.37031E-05
4.71	41.97	4.321	99.9769	-2.92066E-05
9.38	64.54	4.317	99.8843	-3.19905E-05
14.04	87.52	4.316	99.8612	-5.12253E-05
18.71	103.03	4.309	99.6992	-8.23401E-05
23.38	100.66	4.303	99.5604	-4.74297E-05
28.04	109.02	4.306	99.6298	-1.16803E-05
32.71	131.36	4.303	99.5604	-1.39613E-05
37.38	154.74	4.301	99.5141	-1.96956E-05
42.04	178.23	4.298	99.4447	-3.03462E-05
46.71	201.58	4.295	99.3753	-4.74186E-05
51.38	224.93	4.29	99.2596	-7.13232E-05
56.04	248.31	4.281	99.0514	-0.00010954
60.71	271.68	4.268	98.7506	-0.000172593
65.38	295.06	4.247	98.2647	-0.000276147
70.04	301.81	4.227	97.8019	-0.000475446
74.71	299.8	4.211	97.4317	0.00196335
79.38	299.91	4.204	97.2698	0.00216033
84.04	300.06	4.198	97.131	-0.00721362
88.71	299.99	4.195	97.0615	0.0269331
93.38	300	4.19	96.9459	0.00929113
98.04	300	4.185	96.8302	-0.117369
102.71	300	4.181	96.7376	0.296163
107.38	300	4.18	96.7145	0.277175
112.04	300	4.173	96.5525	-0.0297848
116.71	300	4.167	96.4137	0.115871
121.38	300	4.168	96.4368	-0.315971
126.04	300	4.163	96.3211	0.334019
130.71	300	4.159	96.2286	0.445385
135.38	300	4.155	96.136	0.210828
140.04	300	4.151	96.0435	-0.334359
144.71	300	4.147	95.9509	-0.395458
149.38	300	4.141	95.8121	0.33222
154.04	300	4.138	95.7427	0.196068
158.71	300	4.135	95.6733	-0.242473
163.38	300	4.131	95.5807	-0.416983
168.04	300	4.128	95.5113	-0.290686
172.71	300	4.123	95.3957	0.251161
177.38	300	4.12	95.3262	0.334202
182.04	300	4.119	95.3031	0.357026
186.71	300	4.116	95.2337	-0.0201614
191.38	300	4.114	95.1874	-0.338956
196.04	300	4.107	95.0255	-0.0427912
200.71	300	4.104	94.956	0.251094
205.38	300	4.103	94.9329	0.0442886
210.04	300	4.098	94.8172	-0.183744
214.71	300	4.097	94.7941	-0.235447
219.38	300	4.091	94.6553	-0.151374
224.04	300	4.084	94.4933	-0.0913945
228.71	300	4.085	94.5164	0.233784
233.38	300	4.085	94.5164	0.204749
238.04	300	4.085	94.5164	0.0125666
242.71	300	4.082	94.447	-0.182962
247.38	300	4.079	94.3776	-0.021788
252.04	300	4.077	94.3313	0.202787
256.71	300	4.074	94.2619	0.0823933
261.38	300	4.069	94.1462	-0.104726
266.04	300	4.07	94.1694	0.126796
270.71	300	4.065	94.0537	0.271213
275.38	300	4.062	93.9843	-0.0927632
280.04	300	4.062	93.9843	-0.107326
284.71	300	4.058	93.8917	0.0861746
289.38	300	4.06	93.938	0.319439
294.04	300	4.055	93.8223	0.0866762
298.71	300	4.051	93.7298	0.0223207
303.38	300	4.045	93.5909	0.0303854
308.04	300	4.046	93.6141	0.0391038
312.71	300	4.042	93.5215	-0.066054
317.38	300	4.042	93.5215	0.235579
322.04	300	4.036	93.3827	-0.0236051
326.71	300	4.032	93.2901	-0.18576
331.38	300	4.033	93.3133	-0.0619192
336.04	300	4.027	93.1745	0.111628
340.71	300	4.027	93.1745	0.137528
345.38	300	4.024	93.105	0.122491
350.04	300	4.022	93.0588	0.00160594
354.71	300	4.021	93.0356	0.109105
359.38	300	4.02	93.0125	0.212041
364.04	300	4.016	92.9199	0.0883939
368.71	300	4.014	92.8737	-0.0525101
373.38	300	4.012	92.8274	-0.130303
378.04	300	4.01	92.7811	0.0297491
382.71	300	4.007	92.7117	0.0925226
387.38	300	4.005	92.6654	0.109072
392.04	300	4.005	92.6654	-0.0723631
396.71	300	4.002	92.596	-0.125904
401.38	300	4	92.5497	-0.0016277
406.04	300	3.997	92.4803	0.00548178
410.71	300	3.997	92.4803	0.127408
415.38	300	3.996	92.4572	0.0482689
420.04	300	3.988	92.2721	0.0906577
424.71	300	3.99	92.3184	-0.0293683
429.38	300	3.987	92.249	-0.0951334
434.04	300	3.984	92.1795	-0.136808
438.71	300	3.987	92.249	0.130018
443.38	300	3.978	92.0407	0.0596975
448.04	300	3.977	92.0176	0.0370788
452.71	300	3.978	92.0407	0.0594445
457.38	300	3.978	92.0407	-0.0231175
462.04	300	3.974	91.9482	0.0965031
466.71	300	3.972	91.9019	0.159001
471.38	300	3.97	91.8556	0.167593
476.04	300	3.97	91.8556	0.00404894
480.71	300	3.968	91.8093	-0.0338725
485.38	300	3.966	91.7631	-0.00707509
490.04	300	3.965	91.7399	-0.0355466
494.71	300	3.963	91.6937	-0.117185
499.38	300	3.961	91.6474	0.0708413
504.04	300	3.959	91.6011	0.226958
508.71	300	3.957	91.5548	-0.0423539
513.38	300	3.954	91.4854	0.0180431
518.04	300	3.954	91.4854	0.143472
522.71	300	3.953	91.4623	0.00619142
527.38	300	3.95	91.3929	-0.0613936
532.04	300	3.95	91.3929	0.0668962
536.71	300	3.948	91.3466	0.0846185
541.38	300	3.948	91.3466	-0.0155602
546.04	300	3.947	91.3235	0.114006
550.71	300	3.943	91.2309	0.09056
555.38	300	3.941	91.1846	0.0131809
560.04	300	3.941	91.1846	-0.069151
564.71	300	3.937	91.0921	0.0433109
569.38	300	3.936	91.0689	0.0928593
574.04	300	3.935	91.0458	0.0327001
578.71	300	3.933	90.9995	-0.00822387
583.38	300	3.932	90.9764	0.0681898
588.04	300	3.931	90.9533	0.136881
592.71	300	3.93	90.9301	0.0339431
597.38	300	3.929	90.907	0.0160523
602.04	300	3.927	90.8607	0.145115
606.71	300	3.925	90.8144	-0.0961431
611.38	300	3.923	90.7682	0.0823209
616.04	300	3.923	90.7682	0.0763811
620.71	300	3.921	90.7219	0.149987
625.38	300	3.92	90.6988	0.0372613
630.04	300	3.917	90.6293	0.1405
634.71	300	3.918	90.6525	-0.122603
639.38	300	3.917	90.6293	0.0445228
644.04	300	3.913	90.5368	0.135941
648.71	300	3.911	90.4905	0.0672
653.38	300	3.909	90.4442	-0.130919
658.04	300	3.909	90.4442	-0.0591632
662.71	300	3.905	90.3517	-0.129182
667.38	300	3.907	90.398	-0.0880913
672.04	300	3.902	90.2823	0.0525721
676.71	300	3.901	90.2591	0.0486385
681.38	300	3.896	90.1435	0.00322758
686.04	300	3.896	90.1435	0.0420182
690.71	300	3.901	90.2591	0.0869124
695.38	300	3.896	90.1435	-0.152975
700.04	300	3.893	90.074	-0.19417
704.71	300	3.892	90.0509	-0.189926
709.38	300	3.892	90.0509	0.0237151
714.04	300	3.89	90.0046	0.13413
718.71	300	3.891	90.0278	0.106921
723.38	300	3.888	89.9584	0.0717295
728.04	300	3.887	89.9352	-0.0571818
732.71	300	3.886	89.9121	0.0434688
737.38	300	3.886	89.9121	0.105613
742.04	300	3.883	89.8427	0.0134794
746.71	300	3.883	89.8427	-0.0355598
751.38	300	3.88	89.7733	0.0184235
756.04	300	3.88	89.7733	0.0577284
760.71	300	3.879	89.7501	0.0888192
765.38	300	3.874	89.6344	0.0234008
770.04	300	3.876	89.6807	0.00490147
774.71	300	3.876	89.6807	0.0312864
779.38	300	3.873	89.6113	0.125724
784.04	300	3.873	89.6113	0.125466
788.71	300	3.869	89.5187	-0.00182075
793.38	300	3.869	89.5187	-0.0987032
798.04	300	3.87	89.5419	-0.0218109
802.71	300	3.869	89.5187	0.176647
807.38	300	3.869	89.5187	0.140436
812.04	300	3.865	89.4262	0.0542889
816.71	300	3.865	89.4262	-0.0622392
821.38	300	3.861	89.3336	0.140326
826.04	300	3.861	89.3336	0.129334
830.71	300	3.86	89.3105	-0.0292592
835.38	300	3.857	89.2411	-0.119755
840.04	300	3.853	89.1485	-0.179444
844.71	300	3.853	89.1485	-0.0898071
849.38	300	3.851	89.1023	0.0390132
854.04	300	3.85	89.0791	0.139562
858.71	300	3.847	89.0097	0.171988
863.38	300	3.845	88.9634	0.0957967
868.04	300	3.845	88.9634	-0.178271
872.71	300	3.837	88.7783	-0.119553
877.38	300	3.842	88.894	-0.0456477
882.04	300	3.837	88.7783	-0.0259575
886.71	300	3.835	88.7321	0.0465981
891.38	300	3.836	88.7552	-0.06796
896.04	300	3.833	88.6858	0.0758176
900.71	300	3.833	88.6858	0.113378
905.38	300	3.828	88.5701	0.0220771
910.04	300	3.829	88.5932	-0.141747
914.71	300	3.827	88.547	0.0919503
919.38	300	3.826	88.5238	0.100099
924.04	300	3.826	88.5238	-0.00504645
928.71	300	3.823	88.4544	-0.0451092
933.38	300	3.821	88.4081	0.149283
938.04	300	3.822	88.4313	0.168982
942.71	300	3.821	88.4081	0.160437
947.38	300	3.817	88.3156	0.198578
952.04	300	3.818	88.3387	0.195115
956.71	300	3.815	88.2693	0.0706876
961.38	300	3.813	88.223	-0.133404
966.04	300	3.813	88.223	-0.210551
970.71	300	3.809	88.1305	-0.15272
975.38	300	3.808	88.1074	0.158242
980.04	300	3.808	88.1074	0.0886321
984.71	300	3.802	87.9685	0.109103
989.38	300	3.804	88.0148	0.121534
994.04	300	3.801	87.9454	0.138139
998.71	300	3.801	87.9454	0.000981361
1003.38	300	3.803	87.9917	-0.159923
1008.04	300	3.793	87.7603	-0.155807
1012.71	300	3.795	87.8066	0.113887
1017.38	300	3.794	87.7834	-0.00976762
1022.04	300	3.792	87.7372	0.00041732
1026.71	300	3.794	87.7834	-0.0485234
1031.38	300	3.787	87.6215	0.174862
1036.04	300	3.788	87.6446	0.121497
1040.71	300	3.786	87.5983	0.0907484
1045.38	300	3.787	87.6215	0.0774915
1050.04	300	3.785	87.5752	-0.0328129
1054.71	300	3.782	87.5058	-0.151727
1059.38	300	3.78	87.4595	-0.197118
1064.04	300	3.779	87.4364	-0.108469
1068.71	300	3.776	87.367	-0.0500831
1073.38	300	3.774	87.3207	-0.0097192
1078.04	300	3.773	87.2975	0.0903017
1082.71	300	3.774	87.3207	0.18127
1087.38	300	3.774	87.3207	0.224326
1092.04	300	3.77	87.2281	-0.0210277
1096.71	300	3.77	87.2281	-0.0302397
1101.38	300	3.768	87.1819	-0.00989712
1106.04	300	3.769	87.205	-0.00624935
1110.71	300	3.764	87.0893	-0.0363223
1115.38	300	3.763	87.0662	0.0601494
1120.04	300	3.762	87.043	0.0787344
1124.71	300	3.76	86.9968	0.15286
1129.38	300	3.761	87.0199	0.14851
1134.04	300	3.758	86.9505	0.132827
1138.71	300	3.758	86.9505	0.0572511
1143.38	300	3.764	87.0893	-0.0505277
1148.04	300	3.751	86.7885	-0.1916
1152.71	300	3.753	86.8348	-0.136123
1157.38	300	3.75	86.7654	0.101739
1162.04	300	3.749	86.7422	0.119381
1166.71	300	3.749	86.7422	-0.0223527
1171.38	300	3.747	86.696	0.0294771
1176.04	300	3.744	86.6266	0.18816
1180.71	300	3.745	86.6497	0.163277
1185.38	300	3.743	86.6034	0.0751316
1190.04	300	3.741	86.5571	-0.201447
1194.71	300	3.741	86.5571	-0.254811
1199.38	300	3.738	86.4877	-0.054328
1204.04	300	3.735	86.4183	0.0275524
1208.71	300	3.737	86.4646	0.0409607
1213.38	300	3.735	86.4183	0.0343326
1218.04	300	3.735	86.4183	0.0870644
1222.71	300	3.731	86.3258	0.0954638
1227.38	300	3.731	86.3258	0.0885159
1232.04	300	3.729	86.2795	0.00295461
1236.71	300	3.728	86.2564	-0.180299
1241.38	300	3.727	86.2332	0.00321403
1246.04	300	3.728	86.2564	0.153861
1250.71	300	3.727	86.2332	0.0564562
1255.38	300	3.719	86.0481	-0.100356
1260.04	300	3.72	86.0713	-2.41304E-05
1264.71	300.08	3.723	86.1407	-8.10626E-05
1269.38	335.57	3.716	85.9787	-0.00116482
1274.04	382.36	3.614	83.6187	-0.00569745
1278.71	429.42	1.349	31.2124	-0.00720213
1283.38	476.21	0.016	0.370199	-0.00426995
1288.04	523.04	0.016	0.370199	-0.000140002
1292.71	569.82	0.014	0.323924	-1.16686E-05
1297.38	616.59	0.009	0.208237	-3.78047E-06
1302.04	663.34	0.006	0.138825	4.8056E-06
1306.71	710.08	0.015	0.347062	1.47188E-05
1311.38	756.81	0.018	0.416474	1.91004E-05
1314.38	786.85	0.024	0.555298	3.19638E-05