Folder: data-visualizer/data/TGA/005d-L_M (part 5)

File: F10.txt
Filename	F10
Instrument name
Operator	Gwenael
rundate	2025-02-10
Sample name	F10
[step]
Step 1
Time	Temperature	Weight	Weight	Deriv. Weight
min	°C	mg	%	% / °C
0.02	32.03	4.703	100.028	-4.29647e-4
4.71	45.97	4.707	100.110	-1.38247e-3
9.46	69.26	4.705	100.072	-2.30752e-3
14.21	92.51	4.703	100.023	-4.73760e-3
18.96	102.70	4.696	99.882	-8.83828e-3
23.71	100.11	4.693	99.803	-2.65803e-3
28.46	115.39	4.694	99.825	-1.82412e-3
33.21	138.31	4.692	99.778	-2.44554e-3
37.96	162.29	4.688	99.698	-2.17895e-3
42.71	186.12	4.686	99.665	-1.35120e-3
47.46	209.87	4.685	99.640	-9.12211e-4
52.21	233.65	4.684	99.616	-7.84024e-4
56.96	257.45	4.683	99.601	-8.95165e-4
61.71	281.23	4.682	99.582	-1.83431e-3
66.46	300.67	4.679	99.514	-3.85822e-3
71.21	300.86	4.676	99.455	-9.24719e-3
75.96	299.67	4.675	99.425	0.0441158
80.71	300.06	4.673	99.377	-0.172852
85.46	300.01	4.670	99.324	-0.164967
90.21	299.99	4.668	99.277	1.21093
94.96	300.00	4.665	99.215	-6.69927
99.71	300.00	4.663	99.160	6.63815
104.46	300.00	4.659	99.088	6.65175
109.21	300.00	4.656	99.028	21.5940
113.96	300.00	4.652	98.939	3.57032
118.71	300.00	4.650	98.893	-13.2695
123.46	300.00	4.646	98.803	-10.6560
128.21	300.00	4.642	98.726	27.0350
132.96	300.00	4.639	98.656	20.2004
137.71	300.00	4.635	98.571	3.65994
142.46	300.00	4.631	98.497	-35.0091
147.21	300.00	4.628	98.417	-7.63659
151.96	300.00	4.624	98.338	-8.89675
156.71	300.00	4.620	98.262	13.0988
161.46	300.00	4.616	98.180	11.1044
166.21	300.00	4.613	98.100	-2.85478
170.96	300.00	4.609	98.031	0.0374159
175.71	300.00	4.606	97.952	17.4712
180.46	300.00	4.602	97.876	-0.514361
185.21	300.00	4.598	97.799	-26.0527
189.96	300.00	4.595	97.732	-3.90567
194.71	300.00	4.592	97.666	6.58710
199.46	300.00	4.589	97.598	1.79015
204.21	300.00	4.585	97.519	5.25532
208.96	300.00	4.582	97.455	-5.61719
213.71	300.00	4.579	97.388	2.61217
218.46	300.00	4.576	97.320	-4.85526
223.21	300.00	4.573	97.255	5.07365
227.96	300.00	4.570	97.196	-22.0141
232.71	300.00	4.566	97.113	17.2048
237.46	300.00	4.564	97.068	30.7333
242.21	300.00	4.561	97.002	6.89999
246.96	300.00	4.558	96.942	-23.6882
251.71	300.00	4.555	96.875	2.75453
256.46	300.00	4.552	96.815	19.2619
261.21	300.00	4.550	96.760	21.6586
265.96	300.00	4.547	96.703	-23.1864
270.71	300.00	4.544	96.649	-28.4536
275.46	300.00	4.542	96.594	-13.5408
280.21	300.00	4.539	96.528	-4.58365
284.96	300.00	4.537	96.487	17.1935
289.71	300.00	4.534	96.432	1.47635
294.46	300.00	4.531	96.367	15.6106
299.21	300.00	4.529	96.322	12.0174
303.96	300.00	4.526	96.264	-0.557408
308.71	300.00	4.523	96.193	-9.72602
313.46	300.00	4.522	96.163	18.9109
318.21	300.00	4.519	96.103	1.88046
322.96	300.00	4.516	96.051	-1.63635
327.71	300.00	4.514	96.004	-16.7006
332.46	300.00	4.512	95.950	-10.6959
337.21	300.00	4.509	95.900	-1.07488
341.96	300.00	4.507	95.850	8.84461
346.71	300.00	4.505	95.800	17.8901
351.46	300.00	4.502	95.748	-14.5479
356.21	300.00	4.500	95.704	-1.51440
360.96	300.00	4.498	95.653	21.4835
365.71	300.00	4.495	95.606	3.80294
370.46	300.00	4.493	95.556	-8.68905
375.21	300.00	4.491	95.508	-11.1736
379.96	300.00	4.488	95.447	10.3236
384.71	300.00	4.487	95.419	-10.3247
389.46	300.00	4.484	95.366	-13.7719
394.21	300.00	4.482	95.326	20.4692
398.96	300.00	4.480	95.281	31.7051
403.71	300.00	4.478	95.226	-2.45680
408.46	300.00	4.476	95.186	-20.6097
413.21	300.00	4.474	95.142	-11.1164
417.96	300.00	4.471	95.098	13.8010
422.71	300.00	4.470	95.056	22.1322
427.46	300.00	4.467	94.994	-6.57810
432.21	300.00	4.465	94.966	1.14249
436.96	300.00	4.463	94.916	7.95873
441.71	300.00	4.461	94.873	1.19614
446.46	300.00	4.459	94.827	-11.4666
451.21	300.00	4.457	94.788	5.64900
455.96	300.00	4.455	94.740	-18.2357
460.71	300.00	4.452	94.687	-0.409399
465.46	300.00	4.450	94.643	22.1710
470.21	300.00	4.448	94.598	-1.17490
474.96	300.00	4.446	94.548	-9.48408
479.71	300.00	4.442	94.478	1.97561
484.46	300.00	4.441	94.458	11.8121
489.21	300.00	4.439	94.410	-13.7900
493.96	300.00	4.437	94.368	-9.34607
498.71	300.00	4.435	94.325	11.6304
503.46	300.00	4.433	94.284	5.32557
508.21	300.00	4.431	94.232	-22.1570
512.96	300.00	4.429	94.186	-20.1622
517.71	300.00	4.426	94.137	-17.0209
522.46	300.00	4.424	94.098	1.98362
527.21	300.00	4.423	94.071	-4.99425
531.96	300.00	4.421	94.028	4.80768
536.71	300.00	4.420	93.999	6.32367
541.46	300.00	4.418	93.965	2.47914
546.21	300.00	4.417	93.932	-4.27792
550.96	300.00	4.415	93.900	2.21868
555.71	300.00	4.414	93.871	16.9535
560.46	300.00	4.413	93.844	12.8035
565.21	300.00	4.411	93.814	12.1301
569.96	300.00	4.410	93.785	-3.02141
574.71	300.00	4.408	93.750	-8.12833
579.46	300.00	4.406	93.714	-2.16862
584.21	300.00	4.405	93.686	15.7669
588.96	300.00	4.403	93.646	-6.25585
593.71	300.00	4.402	93.615	-11.2236
598.46	300.00	4.400	93.586	-4.03793
603.21	300.00	4.398	93.542	9.37080
607.96	300.00	4.397	93.513	18.5107
612.71	300.00	4.395	93.480	-7.09959
617.46	300.00	4.394	93.447	0.629108
622.21	300.00	4.392	93.411	-2.78727
626.96	300.00	4.391	93.380	6.56208
631.71	300.00	4.389	93.336	-1.95350
636.46	300.00	4.387	93.305	3.09415
641.21	300.00	4.386	93.275	-6.87016
645.96	300.00	4.384	93.243	9.37574
650.71	300.00	4.383	93.210	-12.5220
655.46	300.00	4.381	93.168	4.00147
660.21	300.00	4.379	93.123	14.2768
664.96	300.00	4.377	93.087	4.78423
669.71	300.00	4.375	93.047	-1.01198
674.46	300.00	4.373	93.006	9.67843
679.21	300.00	4.371	92.967	-14.8206
683.96	300.00	4.369	92.925	-18.2039
688.71	300.00	4.367	92.880	7.57883
693.46	300.00	4.365	92.838	-11.1552
698.21	300.00	4.362	92.779	-5.50497
702.96	300.00	4.361	92.754	-8.23295
707.71	300.00	4.359	92.705	20.1817
712.46	300.00	4.357	92.664	25.8094
717.21	300.00	4.356	92.635	11.5471
721.96	300.00	4.353	92.580	2.85800
726.71	300.00	4.351	92.537	14.4697
731.46	300.00	4.349	92.483	-11.3253
736.21	300.00	4.346	92.433	-6.69058
740.96	300.00	4.344	92.393	10.1880
745.71	300.00	4.342	92.343	0.300896
750.46	300.00	4.340	92.294	-7.10472
755.21	300.00	4.338	92.249	-13.6399
759.96	300.00	4.335	92.202	-2.61884
764.71	300.00	4.333	92.149	-4.32776
769.46	300.00	4.331	92.106	-1.33475
774.21	300.00	4.329	92.063	14.5915
778.96	300.00	4.327	92.016	21.6375
783.71	300.00	4.325	91.973	-8.47611
788.46	300.00	4.322	91.926	-16.7840
793.21	300.00	4.321	91.890	4.19927
797.96	300.00	4.318	91.833	9.53419
802.71	300.00	4.316	91.792	-13.6452
807.46	300.00	4.314	91.746	10.5662
812.21	300.00	4.312	91.707	15.1380
816.96	300.00	4.310	91.663	8.13179
821.71	300.00	4.308	91.621	-8.22485
826.46	300.00	4.306	91.576	1.48566
831.21	300.00	4.304	91.534	-17.4277
835.96	300.00	4.302	91.499	-4.55307
840.71	300.00	4.300	91.449	-2.02878
845.46	300.00	4.298	91.408	4.26911
850.21	300.00	4.296	91.373	2.84478
854.96	300.00	4.295	91.336	2.81318
859.71	300.00	4.293	91.300	1.79471
864.46	300.00	4.291	91.249	7.37341
869.21	300.00	4.289	91.225	6.71160
873.96	300.00	4.287	91.173	10.5882
878.71	300.00	4.285	91.138	2.50874
883.46	300.00	4.283	91.098	-11.7249
888.21	300.00	4.281	91.053	-12.1076
892.96	300.00	4.280	91.025	17.3870
897.71	300.00	4.278	90.979	1.60398
902.46	300.00	4.276	90.941	-5.44663
907.21	300.00	4.274	90.908	-4.35939
911.96	300.00	4.272	90.862	11.3291
916.71	300.00	4.270	90.820	-1.75661
921.46	300.00	4.268	90.771	15.7799
926.21	300.00	4.266	90.737	-13.8050
930.96	300.00	4.265	90.701	-9.58679
935.71	300.00	4.262	90.650	2.98590
940.46	300.00	4.261	90.614	17.6567
945.21	300.00	4.259	90.581	15.2097
949.96	300.00	4.258	90.547	-9.03092
954.71	300.00	4.256	90.507	2.55653
959.46	300.00	4.254	90.472	-0.308042
964.21	300.00	4.252	90.422	-6.70160
968.96	300.00	4.250	90.395	-19.6304
973.71	300.00	4.249	90.357	-14.2643
978.46	300.00	4.247	90.324	10.0254
983.21	300.00	4.245	90.285	17.3332
987.96	300.00	4.243	90.249	10.9684
992.71	300.00	4.242	90.213	-16.1332
997.46	300.00	4.240	90.181	-8.23806
1002.21	300.00	4.239	90.145	16.7961
1006.96	300.00	4.237	90.107	17.1232
1011.71	300.00	4.235	90.068	-14.1659
1016.46	300.00	4.233	90.029	-23.0952
1021.21	300.00	4.231	89.992	2.93773
1025.96	300.00	4.230	89.951	18.0318
1030.71	300.00	4.228	89.918	14.4382
1035.46	300.00	4.226	89.875	-5.21947
1040.21	300.00	4.224	89.829	1.15338
1044.96	300.00	4.222	89.788	-6.53896
1049.71	300.00	4.220	89.759	-15.9454
1054.46	300.00	4.218	89.705	-17.4926
1059.21	300.00	4.216	89.668	-14.1014
1063.96	300.00	4.214	89.628	7.81720
1068.71	300.00	4.214	89.618	17.1139
1073.46	300.00	4.211	89.564	22.1313
1078.21	300.00	4.210	89.532	11.7088
1082.96	300.00	4.208	89.497	18.5694
1087.71	300.00	4.206	89.458	21.5239
1092.46	300.00	4.205	89.435	19.3772
1097.21	300.00	4.204	89.401	-0.0398084
1101.96	300.00	4.202	89.371	-13.3084
1106.71	300.00	4.200	89.317	-15.6758
1111.46	300.00	4.198	89.278	-10.1210
1116.21	300.00	4.196	89.248	15.9286
1120.96	300.00	4.195	89.210	11.1482
1125.71	300.00	4.192	89.161	16.7947
1130.46	300.00	4.191	89.137	6.16243
1135.21	300.00	4.189	89.099	-3.04609
1139.96	300.00	4.188	89.073	3.79764
1144.71	300.00	4.187	89.041	21.0784
1149.46	300.00	4.185	89.005	6.69637
1154.21	300.00	4.183	88.959	-19.1892
1158.96	300.00	4.181	88.912	-18.4178
1163.71	300.00	4.179	88.879	-13.9062
1168.46	300.00	4.177	88.840	6.75767
1173.21	300.00	4.175	88.800	17.5125
1177.96	300.00	4.174	88.770	16.8890
1182.71	300.00	4.172	88.734	-2.54031
1187.46	300.00	4.171	88.697	-7.69180
1192.21	300.00	4.169	88.657	2.40806
1196.96	300.00	4.167	88.620	-6.11543
1201.71	300.00	4.165	88.578	-17.5772
1206.46	300.00	4.164	88.560	0.958577
1211.21	300.00	4.161	88.490	6.99747
1215.96	300.00	4.159	88.451	16.8480
1220.71	300.00	4.157	88.411	-1.02154
1225.46	300.00	4.156	88.379	2.01063
1230.21	300.00	4.153	88.334	6.27454
1234.96	300.00	4.152	88.302	5.04092
1239.71	300.00	4.150	88.268	-16.1644
1244.46	300.00	4.148	88.224	-2.05325
1249.21	300.00	4.146	88.185	15.0831
1253.96	300.00	4.145	88.147	13.7161
1258.71	300.00	4.143	88.109	-3.64338e-3
1263.46	300.00	4.141	88.061	-0.0101607
1268.21	332.95	4.137	87.984	-0.110473
1272.96	380.38	4.016	85.416	-0.582740
1277.71	428.33	1.513	32.174	-0.741220
1282.46	475.95	0.017	0.371	-0.430575
1287.21	523.61	0.015	0.314	-8.21644e-3
1291.96	571.23	0.015	0.328	1.36579e-4
1296.71	618.83	0.017	0.356	5.44554e-4
1301.46	666.42	0.018	0.387	8.31834e-4
1306.21	713.99	0.020	0.421	9.19032e-4
1310.96	761.56	0.022	0.466	9.27620e-4
1313.46	786.58	0.023	0.498	9.76016e-4

File: F10_000002 -temp_104 AMU_XIC
Time	Ion Current
min	mA
0.00	1.00000e-13
4.52	1.00000e-13
9.05	1.00000e-13
13.58	1.00000e-13
18.10	1.00000e-13
22.63	1.00000e-13
27.16	1.00000e-13
31.68	1.00000e-13
36.21	1.00000e-13
40.74	1.00000e-13
45.26	1.00000e-13
49.79	1.00000e-13
54.31	1.00000e-13
58.84	1.00000e-13
63.37	1.00000e-13
67.89	1.00000e-13
72.42	1.00000e-13
76.94	1.00000e-13
81.47	1.00000e-13
86.00	3.70731e-6
90.52	1.00000e-13
95.05	1.00000e-13
99.57	1.00000e-13
104.10	1.00000e-13
108.63	1.00000e-13
113.15	2.53719e-5
117.68	1.00000e-13
122.21	1.00000e-13
126.73	1.00000e-13
131.26	1.00000e-13
135.78	1.55244e-5
140.31	1.00000e-13
144.84	1.00000e-13
149.36	1.00000e-13
153.89	1.00000e-13
158.42	1.00000e-13
162.94	1.00000e-13
167.46	1.00000e-13
171.99	1.00000e-13
176.52	1.00000e-13
181.05	1.00000e-13
185.57	1.00000e-13
190.10	1.00000e-13
194.62	1.05427e-5
199.15	1.00000e-13
203.67	1.00000e-13
208.20	1.00000e-13
212.73	1.00000e-13
217.26	1.00000e-13
221.78	1.74939e-5
226.31	1.00000e-13
230.83	1.00000e-13
235.36	1.00000e-13
239.89	1.00000e-13
244.41	1.00000e-13
248.94	1.00000e-13
253.47	1.00000e-13
257.99	1.00000e-13
262.52	1.00000e-13
267.04	1.00000e-13
271.57	1.00000e-13
276.09	1.00000e-13
280.62	1.00000e-13
285.15	1.00000e-13
289.67	1.00000e-13
294.20	1.00000e-13
298.73	1.00000e-13
303.25	1.00000e-13
307.78	1.00000e-13
312.30	1.00000e-13
316.83	1.00000e-13
321.36	1.00000e-13
325.88	1.00000e-13
330.41	1.00000e-13
334.93	1.00000e-13
339.46	1.00000e-13
343.99	1.00000e-13
348.51	1.00000e-13
353.04	1.00000e-13
357.57	1.00000e-13
362.09	1.00000e-13
366.62	1.00000e-13
371.15	1.00000e-13
375.67	1.00000e-13
380.20	1.00000e-13
384.72	1.00000e-13
389.25	1.00000e-13
393.78	1.00000e-13
398.30	1.00000e-13
402.83	1.17012e-5
407.36	1.00000e-13
411.88	1.00000e-13
416.41	1.00000e-13
420.93	1.00000e-13
425.46	1.00000e-13
429.98	1.00000e-13
434.51	1.00000e-13
439.04	1.00000e-13
443.56	1.00000e-13
448.09	1.00000e-13
452.61	1.00000e-13
457.14	1.00000e-13
461.67	1.00000e-13
466.19	1.00000e-13
470.72	1.00000e-13
475.24	1.00000e-13
479.77	1.45975e-5
484.30	1.00000e-13
488.83	1.00000e-13
493.35	1.00000e-13
497.88	1.00000e-13
502.40	1.15853e-5
506.93	1.00000e-13
511.45	1.00000e-13
515.98	1.00000e-13
520.51	1.00000e-13
525.03	1.00000e-13
529.56	1.00000e-13
534.09	5.79267e-6
538.61	1.04268e-6
543.14	1.00000e-13
547.66	1.00000e-13
552.19	1.00000e-13
556.72	1.00000e-13
561.24	1.00000e-13
565.77	1.00000e-13
570.29	1.00000e-13
574.82	1.00000e-13
579.35	1.00000e-13
583.87	1.00000e-13
588.40	1.00000e-13
592.93	1.00000e-13
597.45	1.00000e-13
601.98	1.00000e-13
606.50	1.00000e-13
611.03	1.00000e-13
615.56	1.00000e-13
620.08	1.00000e-13
624.61	1.00000e-13
629.14	1.00000e-13
633.66	1.00000e-13
638.19	1.00000e-13
642.72	1.00000e-13
647.24	1.00000e-13
651.77	1.00000e-13
656.29	1.00000e-13
660.82	1.00000e-13
665.34	1.00000e-13
669.87	1.00000e-13
674.40	1.00000e-13
678.92	1.00000e-13
683.45	1.00000e-13
687.98	1.00000e-13
692.50	1.00000e-13
697.03	1.00000e-13
701.56	1.00000e-13
706.08	1.00000e-13
710.61	1.00000e-13
715.13	1.00000e-13
719.66	5.12072e-5
724.19	1.00000e-13
728.71	1.00000e-13
733.24	1.00000e-13
737.76	1.00000e-13
742.29	1.00000e-13
746.82	1.00000e-13
751.34	1.00000e-13
755.87	1.00000e-13
760.39	1.00000e-13
764.92	1.00000e-13
769.45	1.00000e-13
773.98	1.00000e-13
778.50	1.00000e-13
783.03	1.00000e-13
787.55	1.00000e-13
792.08	1.00000e-13
796.60	1.00000e-13
801.13	1.00000e-13
805.66	6.60365e-6
810.18	1.00000e-13
814.71	1.00000e-13
819.24	1.00000e-13
823.76	1.00000e-13
828.29	1.00000e-13
832.81	1.00000e-13
837.34	1.00000e-13
841.87	1.00000e-13
846.39	1.00000e-13
850.92	1.00000e-13
855.45	1.00000e-13
859.97	1.00000e-13
864.50	1.00000e-13
869.02	1.00000e-13
873.55	1.00000e-13
878.08	1.00000e-13
882.60	1.00000e-13
887.13	1.00000e-13
891.65	1.00000e-13
896.18	1.00000e-13
900.71	1.00000e-13
905.24	1.00000e-13
909.76	1.00000e-13
914.29	1.00000e-13
918.81	1.00000e-13
923.34	1.00000e-13
927.86	1.00000e-13
932.39	1.00000e-13
936.92	1.00000e-13
941.44	1.00000e-13
945.97	1.00000e-13
950.49	1.00000e-13
955.02	1.00000e-13
959.55	1.00000e-13
964.07	1.00000e-13
968.60	1.00000e-13
973.13	1.00000e-13
977.65	1.00000e-13
982.18	1.00000e-13
986.71	1.00000e-13
991.23	1.00000e-13
995.76	1.00000e-13
1000.28	1.00000e-13
1004.81	1.00000e-13
1009.34	1.00000e-13
1013.86	1.00000e-13
1018.39	1.00000e-13
1022.91	1.00000e-13
1027.44	1.00000e-13
1031.97	9.26828e-6
1036.49	1.00000e-13
1041.02	1.00000e-13
1045.55	1.00000e-13
1050.07	1.00000e-13
1054.60	1.00000e-13
1059.13	1.00000e-13
1063.65	1.00000e-13
1068.18	1.00000e-13
1072.70	1.00000e-13
1077.23	1.00000e-13
1081.75	1.00000e-13
1086.28	1.00000e-13
1090.81	1.00000e-13
1095.33	1.00000e-13
1099.86	1.00000e-13
1104.39	1.00000e-13
1108.91	1.00000e-13
1113.44	1.00000e-13
1117.96	1.00000e-13
1122.49	1.00000e-13
1127.02	1.00000e-13
1131.54	1.00000e-13
1136.07	1.00000e-13
1140.59	1.00000e-13
1145.12	1.00000e-13
1149.65	1.00000e-13
1154.18	1.00000e-13
1158.70	1.00000e-13
1163.22	1.00000e-13
1167.75	1.00000e-13
1172.28	1.00000e-13
1176.80	1.00000e-13
1181.33	1.00000e-13
1185.86	1.00000e-13
1190.38	1.00000e-13
1194.91	1.00000e-13
1199.44	1.00000e-13
1203.96	1.00000e-13
1208.49	1.00000e-13
1213.01	1.00000e-13
1217.54	1.00000e-13
1222.06	1.00000e-13
1226.59	1.00000e-13
1231.12	1.00000e-13
1235.64	1.00000e-13
1240.17	1.00000e-13
1244.70	1.77256e-5
1249.22	1.00000e-13
1253.75	1.00000e-13
1258.27	1.00000e-13
1262.80	1.00000e-13
1267.33	1.00000e-13
1271.85	2.97164e-4
1276.38	0.0102535
1280.90	0.0287424
1285.43	4.39861e-3
1289.96	6.47505e-4
1294.48	1.41457e-4
1299.01	4.14755e-5
1303.54	1.00000e-13
1308.06	3.69573e-5
1312.59	9.49998e-6
1313.07	3.51036e-5