Folder: data-visualizer/data/TGA/005d-B (part 2)

File: 005dB1-rGPC+flash TG.txt
Filename	005dB1-rGPC+flash
Instrument name
Operator	Gwenael
rundate	2025-01-13
Sample name	005dB1-rGPC+flash
[step]
Step 1
Time	Temperature	Weight	Weight	Deriv. Weight
min	°C	mg	%	% / °C
0.01	26.44	5.058	99.981	-2.77558e-3
4.73	41.04	5.074	100.306	-6.17514e-3
9.53	64.37	5.072	100.260	-8.00040e-3
14.33	88.07	5.061	100.047	-8.90924e-3
19.13	103.04	5.047	99.762	-0.0109877
23.93	100.51	5.041	99.638	-0.0116222
28.73	111.37	5.040	99.623	-0.0147300
33.53	134.38	5.034	99.497	-0.0198281
38.33	158.56	5.013	99.093	-0.0243927
43.13	182.67	4.969	98.219	-0.0289021
47.93	206.68	4.922	97.301	-0.0306924
52.73	230.70	4.884	96.534	-0.0296222
57.53	254.75	4.855	95.973	-0.0300038
62.33	278.79	4.828	95.443	-0.0335880
67.13	299.99	4.792	94.719	-0.0418789
71.93	301.07	4.755	93.989	-0.0599471
76.73	299.65	4.730	93.487	-0.106304
81.53	300.05	4.709	93.076	0.655979
86.33	300.02	4.690	92.698	0.662891
91.13	299.99	4.672	92.350	-3.16087
95.93	300.01	4.655	92.018	14.8617
100.73	300.00	4.639	91.703	-6.37086
105.53	300.00	4.624	91.394	-27.8880
110.33	300.00	4.609	91.106	124.325
115.13	300.00	4.594	90.809	-86.4691
119.93	300.00	4.580	90.522	30.3758
124.73	300.00	4.566	90.251	-57.9092
129.52	300.00	4.552	89.972	-174.471
134.33	300.00	4.538	89.709	55.3092
139.13	300.00	4.525	89.443	199.256
143.93	300.00	4.512	89.191	171.935
148.73	300.00	4.499	88.939	46.7152
153.53	300.00	4.487	88.689	13.8514
158.33	300.00	4.475	88.448	-92.6230
163.13	300.00	4.462	88.201	-173.263
167.93	300.00	4.450	87.968	-34.3770
172.73	300.00	4.438	87.731	-52.1120
177.53	300.00	4.426	87.497	-44.7413
182.33	300.00	4.415	87.271	-83.0990
187.13	300.00	4.404	87.045	22.7531
191.93	300.00	4.392	86.819	-127.594
196.73	300.00	4.381	86.602	-103.962
201.53	300.00	4.370	86.382	-4.99104
206.33	300.00	4.359	86.163	23.6932
211.13	300.00	4.349	85.956	49.4364
215.93	300.00	4.338	85.751	56.0993
220.73	300.00	4.328	85.554	81.4044
225.53	300.00	4.318	85.349	-3.71992
230.33	300.00	4.308	85.146	-14.7363
235.13	300.00	4.297	84.945	11.4091
239.93	300.00	4.288	84.753	-95.5135
244.73	300.00	4.278	84.557	-47.4339
249.53	300.00	4.268	84.368	2.40351
254.33	300.00	4.258	84.166	69.0841
259.13	300.00	4.249	83.981	44.8483
263.92	300.00	4.239	83.785	16.4028
268.73	300.00	4.230	83.604	15.7915
273.53	300.00	4.220	83.418	-57.7237
278.33	300.00	4.210	83.227	-39.1029
283.13	300.00	4.201	83.038	-92.6105
287.93	300.00	4.192	82.862	-25.2343
292.73	300.00	4.183	82.676	4.25935
297.53	300.00	4.173	82.496	41.2270
302.33	300.00	4.164	82.314	131.815
307.13	300.00	4.155	82.137	38.3368
311.93	300.00	4.146	81.957	77.7495
316.73	300.00	4.137	81.782	78.5032
321.53	300.00	4.129	81.615	128.020
326.33	300.00	4.119	81.428	51.2638
331.13	300.00	4.111	81.262	78.6183
335.93	300.00	4.102	81.078	56.9961
340.73	300.00	4.093	80.901	-69.6118
345.53	300.00	4.084	80.724	-64.6940
350.33	300.00	4.075	80.549	-102.485
355.13	300.00	4.066	80.368	-68.8845
359.93	300.00	4.057	80.189	-22.5587
364.73	300.00	4.048	80.022	74.5389
369.53	300.00	4.039	79.845	1.64223
374.33	300.00	4.031	79.677	24.9475
379.13	300.00	4.022	79.493	-63.4472
383.93	300.00	4.013	79.329	-81.7870
388.73	300.00	4.005	79.169	-30.1993
393.53	300.00	3.997	79.000	-8.25066
398.33	300.00	3.988	78.835	-30.6883
403.13	300.00	3.980	78.670	-57.7862
407.93	300.00	3.971	78.497	32.1352
412.73	300.00	3.963	78.328	9.72659
417.53	300.00	3.955	78.175	29.6936
422.33	300.00	3.947	78.014	117.976
427.13	300.00	3.939	77.858	32.2017
431.93	300.00	3.930	77.692	-72.8555
436.73	300.00	3.922	77.535	0.0850441
441.53	300.00	3.915	77.381	54.7376
446.33	300.00	3.906	77.207	-2.30131
451.13	300.00	3.898	77.055	-30.3112
455.93	300.00	3.891	76.907	-49.7730
460.73	300.00	3.883	76.751	-16.9473
465.53	300.00	3.875	76.604	-19.9494
470.33	300.00	3.867	76.444	12.2016
475.13	300.00	3.860	76.296	18.2008
479.93	300.00	3.852	76.136	57.2550
484.73	300.00	3.844	75.988	-50.6840
489.53	300.00	3.836	75.834	5.82737
494.33	300.00	3.829	75.683	10.4930
499.13	300.00	3.821	75.538	26.4064
503.93	300.00	3.814	75.385	-54.0477
508.73	300.00	3.806	75.238	35.1064
513.53	300.00	3.799	75.091	18.8901
518.33	300.00	3.792	74.946	-46.9623
523.13	300.00	3.784	74.795	-15.0745
527.93	300.00	3.776	74.645	-1.54086
532.72	300.00	3.769	74.498	-55.5114
537.53	300.00	3.762	74.357	14.4865
542.33	300.00	3.754	74.205	54.0421
547.13	300.00	3.747	74.065	78.6719
551.93	300.00	3.740	73.921	40.4222
556.73	300.00	3.732	73.775	9.62602
561.53	300.00	3.725	73.634	-63.8393
566.33	300.00	3.718	73.495	-79.4985
571.13	300.00	3.711	73.349	-35.0499
575.93	300.00	3.704	73.208	99.9932
580.73	300.00	3.696	73.066	86.6351
585.53	300.00	3.689	72.929	101.586
590.33	300.00	3.682	72.784	83.3331
595.13	300.00	3.675	72.647	1.17504
599.93	300.00	3.668	72.503	-68.9319
604.73	300.00	3.661	72.361	-31.3089
609.53	300.00	3.654	72.222	-57.7101
614.33	300.00	3.646	72.072	-43.9984
619.13	300.00	3.640	71.943	57.2563
623.93	300.00	3.632	71.799	11.0146
628.73	300.00	3.625	71.660	13.1879
633.53	300.00	3.618	71.517	37.8387
638.33	300.00	3.611	71.372	0.155939
643.13	300.00	3.604	71.243	-16.6161
647.93	300.00	3.597	71.099	-16.2185
652.73	300.00	3.590	70.962	-30.2880
657.53	300.00	3.583	70.824	-60.3256
662.33	300.00	3.576	70.687	-36.3803
667.13	300.00	3.569	70.545	-2.07035
671.93	300.00	3.562	70.407	13.1418
676.73	300.00	3.555	70.273	19.4818
681.53	300.00	3.548	70.139	9.04507
686.33	300.00	3.541	69.997	5.60740
691.13	300.00	3.535	69.866	-81.5572
695.93	300.00	3.528	69.730	10.9232
700.73	300.00	3.521	69.605	3.32402
705.53	300.00	3.514	69.468	-0.218522
710.33	300.00	3.508	69.342	51.5409
715.13	300.00	3.502	69.214	15.1577
719.93	300.00	3.494	69.071	-75.1237
724.73	300.00	3.488	68.949	-102.719
729.53	300.00	3.482	68.822	-25.0055
734.33	300.00	3.475	68.695	-68.5038
739.13	300.00	3.469	68.566	70.2305
743.93	300.00	3.462	68.437	113.764
748.73	300.00	3.456	68.318	89.1414
753.53	300.00	3.450	68.192	46.9329
758.33	300.00	3.444	68.069	-31.8050
763.13	300.00	3.437	67.946	-12.4734
767.93	300.00	3.432	67.833	27.8211
772.73	300.00	3.425	67.701	26.2567
777.53	300.00	3.419	67.578	-19.9592
782.33	300.00	3.413	67.459	10.9986
787.13	300.00	3.406	67.332	-17.5892
791.93	300.00	3.400	67.205	6.20286
796.73	300.00	3.394	67.083	1.83892
801.53	300.00	3.388	66.963	8.62490
806.33	300.00	3.381	66.837	-28.2101
811.13	300.00	3.375	66.714	47.0710
815.93	300.00	3.369	66.592	-0.0922664
820.73	300.00	3.363	66.469	17.3328
825.53	300.00	3.357	66.349	9.40387
830.33	300.00	3.350	66.226	-30.8993
835.13	300.00	3.344	66.102	-58.7651
839.93	300.00	3.338	65.976	-21.2717
844.73	300.00	3.331	65.852	36.9524
849.53	300.00	3.325	65.727	41.8433
854.33	300.00	3.319	65.606	-9.09885
859.13	300.00	3.313	65.494	55.1118
863.93	300.00	3.307	65.366	-12.0132
868.73	300.00	3.301	65.247	-32.0669
873.53	300.00	3.295	65.126	-19.9690
878.33	300.00	3.289	65.011	-9.40730
883.13	300.00	3.283	64.890	-18.0091
887.93	300.00	3.277	64.772	66.7028
892.73	300.00	3.271	64.649	49.7728
897.53	300.00	3.265	64.533	-30.0232
902.33	300.00	3.259	64.416	-47.0320
907.13	300.00	3.253	64.292	-20.2981
911.93	300.00	3.247	64.181	-67.7702
916.73	300.00	3.241	64.062	73.3002
921.53	300.00	3.235	63.947	17.9807
926.33	300.00	3.229	63.831	24.9836
931.13	300.00	3.223	63.710	14.8613
935.93	300.00	3.217	63.592	-22.0256
940.73	300.00	3.211	63.480	-7.89804
945.53	300.00	3.205	63.362	-42.1129
950.33	300.00	3.199	63.243	30.3488
955.13	300.00	3.194	63.131	12.0033
959.93	300.00	3.188	63.019	24.4692
964.73	300.00	3.182	62.903	28.1388
969.53	300.00	3.176	62.788	26.1275
974.33	300.00	3.171	62.674	-44.5781
979.13	300.00	3.165	62.563	5.30596
983.93	300.00	3.159	62.448	6.96011
988.73	300.00	3.153	62.333	31.1580
993.53	300.00	3.148	62.217	23.8959
998.33	300.00	3.142	62.110	31.8401
1003.13	300.00	3.137	61.999	-24.8834
1007.93	300.00	3.131	61.883	-23.1950
1012.73	300.00	3.125	61.772	-60.1384
1017.53	300.00	3.119	61.660	-5.04449
1022.33	300.00	3.114	61.554	-30.8241
1027.13	300.00	3.108	61.432	13.7727
1031.93	300.00	3.102	61.325	-0.491910
1036.73	300.00	3.097	61.222	-8.27207
1041.53	300.00	3.091	61.104	-58.5768
1046.32	300.00	3.086	60.992	57.2111
1051.13	300.00	3.080	60.889	1.22294
1055.93	300.00	3.075	60.782	7.70068
1060.73	300.00	3.069	60.659	-18.5638
1065.53	300.00	3.063	60.553	-9.64207
1070.32	300.00	3.058	60.445	-77.2496
1075.13	300.00	3.052	60.334	0.426051
1079.93	300.00	3.047	60.224	48.9377
1084.73	300.00	3.041	60.120	8.16466
1089.53	300.00	3.036	60.013	65.3953
1094.33	300.00	3.031	59.912	68.2130
1099.13	300.00	3.025	59.795	-38.0408
1103.93	300.00	3.020	59.691	-47.9336
1108.73	300.00	3.014	59.580	3.73587
1113.53	300.00	3.009	59.480	-21.4495
1118.33	300.00	3.003	59.369	20.2591
1123.13	300.00	2.998	59.268	-3.98155
1127.93	300.00	2.993	59.165	37.0277
1132.73	300.00	2.988	59.054	-36.2067
1137.53	300.00	2.982	58.952	-25.2630
1142.33	300.00	2.977	58.847	-54.3309
1147.13	300.00	2.972	58.737	50.7722
1151.93	300.00	2.966	58.633	19.4012
1156.73	300.00	2.961	58.538	73.4545
1161.53	300.00	2.956	58.431	71.8006
1166.33	300.00	2.951	58.322	45.5617
1171.13	300.00	2.945	58.218	-62.3935
1175.93	300.00	2.941	58.126	-14.5270
1180.73	300.00	2.935	58.018	-17.1408
1185.53	300.00	2.930	57.918	-31.7071
1190.33	300.00	2.926	57.828	16.2836
1195.13	300.00	2.920	57.716	-18.8896
1199.93	300.00	2.914	57.609	-58.5505
1204.73	300.00	2.910	57.511	-15.2613
1209.53	300.00	2.904	57.407	48.5428
1214.33	300.00	2.899	57.310	38.3511
1219.13	300.00	2.894	57.205	41.1436
1223.93	300.00	2.889	57.109	-22.8970
1228.73	300.00	2.884	57.007	-61.3300
1233.53	300.00	2.879	56.905	-18.1224
1238.33	300.00	2.874	56.808	-51.8074
1243.13	300.00	2.869	56.707	74.8375
1247.93	300.00	2.863	56.601	-12.9001
1252.73	300.00	2.859	56.508	-0.0249479
1257.53	300.00	2.854	56.408	-0.0189991
1262.33	300.00	2.849	56.314	-0.0822229
1267.13	312.91	2.845	56.227	-0.242400
1271.93	358.69	2.792	55.191	-0.291749
1276.73	407.45	2.131	42.122	-0.278144
1281.53	455.60	0.274	5.418	-0.247278
1286.33	503.76	0.110	2.182	-0.181257
1291.13	551.89	0.108	2.127	-0.0734342
1295.93	600.00	0.108	2.126	-4.07024e-3
1300.73	648.09	0.105	2.072	-5.57794e-4
1305.53	696.17	0.104	2.050	-4.79604e-4
1310.33	744.24	0.102	2.020	-4.35837e-4
1314.53	786.29	0.102	2.018	-3.43077e-4

File: 005dB1-toyopearls MS_104 AMU_XIC
Time	Ion Current
min	mA
0.00	1.00000e-13
4.53	1.00000e-13
9.05	1.00000e-13
13.58	1.00000e-13
18.10	1.00000e-13
22.63	1.00000e-13
27.16	1.00000e-13
31.69	1.00000e-13
36.21	1.00000e-13
40.74	1.00000e-13
45.27	1.00000e-13
49.79	1.00000e-13
54.32	1.00000e-13
58.84	1.00000e-13
63.37	1.00000e-13
67.90	1.27439e-6
72.42	1.00000e-13
76.95	2.06219e-5
81.48	5.25975e-5
86.01	5.69999e-5
90.53	3.37134e-5
95.06	9.84755e-6
99.58	4.17073e-6
104.11	1.00000e-13
108.64	1.00000e-13
113.16	1.00000e-13
117.69	1.48292e-5
122.22	1.77256e-5
126.74	1.00000e-13
131.27	2.82682e-5
135.79	1.79573e-5
140.32	3.10487e-5
144.85	1.00000e-13
149.37	1.00000e-13
153.90	1.62195e-6
158.43	2.08536e-6
162.95	1.00000e-13
167.48	1.04268e-6
172.01	5.90853e-6
176.53	1.00000e-13
181.06	1.35549e-5
185.59	6.14023e-6
190.11	5.90853e-6
194.64	1.00000e-13
199.17	1.00000e-13
203.70	1.00000e-13
208.22	1.00000e-13
212.75	1.00000e-13
217.27	2.31707e-7
221.80	1.00000e-13
226.33	4.86585e-6
230.85	1.00000e-13
235.38	1.00000e-13
239.91	1.00000e-13
244.43	1.00000e-13
248.96	1.00000e-13
253.49	1.00000e-13
258.01	1.66829e-5
262.54	1.00000e-13
267.07	1.00000e-13
271.59	1.00000e-13
276.12	2.31707e-7
280.64	1.00000e-13
285.17	1.00000e-13
289.70	2.09695e-5
294.22	1.00000e-13
298.75	1.00000e-13
303.28	1.85366e-5
307.80	1.00000e-13
312.33	1.00000e-13
316.86	3.35975e-6
321.38	1.00000e-13
325.91	1.03110e-5
330.44	4.98170e-6
334.96	2.80365e-5
339.49	2.36341e-5
344.02	1.00000e-13
348.54	1.00000e-13
353.07	2.44451e-5
357.60	1.00000e-13
362.12	1.00000e-13
366.65	1.00000e-13
371.18	1.00000e-13
375.70	1.00000e-13
380.23	1.00000e-13
384.75	1.00000e-13
389.28	1.00000e-13
393.81	1.00000e-13
398.34	1.00000e-13
402.86	4.63414e-6
407.39	1.00000e-13
411.91	1.00000e-13
416.44	1.00000e-13
420.97	1.00000e-13
425.49	1.00000e-13
430.02	1.00000e-13
434.55	7.76218e-6
439.08	1.00000e-13
443.60	1.00000e-13
448.13	1.00000e-13
452.65	1.00000e-13
457.18	1.00000e-13
461.71	1.00000e-13
466.24	1.00000e-13
470.76	1.00000e-13
475.29	1.00000e-13
479.81	1.00000e-13
484.34	2.95426e-5
488.87	1.00000e-13
493.39	1.00000e-13
497.92	1.00000e-13
502.44	1.00000e-13
506.97	1.00000e-13
511.50	1.00000e-13
516.03	1.62195e-6
520.55	1.00000e-13
525.08	1.00000e-13
529.60	1.05427e-5
534.13	1.00000e-13
538.66	1.00000e-13
543.19	1.00000e-13
547.71	1.00000e-13
552.24	1.00000e-13
556.76	1.00000e-13
561.29	1.00000e-13
565.82	1.00000e-13
570.34	1.00000e-13
574.87	1.00000e-13
579.40	2.20122e-6
583.92	1.00000e-13
588.45	1.00000e-13
592.98	1.00000e-13
597.50	1.00000e-13
602.03	1.00000e-13
606.56	1.00000e-13
611.08	1.00000e-13
615.61	1.00000e-13
620.13	1.15853e-5
624.66	1.30914e-5
629.19	1.00000e-13
633.71	1.00000e-13
638.24	1.00000e-13
642.77	1.00000e-13
647.29	1.00000e-13
651.82	1.61036e-5
656.35	1.00000e-13
660.87	1.00000e-13
665.40	1.00000e-13
669.93	1.00000e-13
674.45	1.00000e-13
678.98	1.00000e-13
683.51	1.00000e-13
688.03	1.62195e-6
692.56	1.00000e-13
697.09	1.00000e-13
701.61	2.54878e-6
706.14	1.00000e-13
710.66	1.00000e-13
715.19	2.31707e-7
719.72	1.00000e-13
724.25	1.00000e-13
728.77	1.04268e-6
733.30	1.00000e-13
737.82	1.00000e-13
742.35	1.00000e-13
746.88	1.00000e-13
751.40	6.48779e-6
755.93	1.00000e-13
760.46	1.15853e-5
764.99	1.00000e-13
769.51	1.15853e-6
774.04	1.00000e-13
778.56	1.00000e-13
783.09	1.00000e-13
787.62	1.00000e-13
792.14	1.00000e-13
796.67	1.00000e-13
801.20	1.00000e-13
805.72	1.00000e-13
810.25	1.00000e-13
814.78	1.00000e-13
819.30	1.00000e-13
823.83	1.00000e-13
828.35	1.00000e-13
832.88	1.00000e-13
837.41	1.00000e-13
841.94	1.00000e-13
846.46	1.54085e-5
850.99	1.00000e-13
855.52	1.00000e-13
860.04	1.00000e-13
864.57	1.00000e-13
869.10	1.00000e-13
873.62	1.00000e-13
878.15	1.00000e-13
882.67	1.00000e-13
887.20	1.00000e-13
891.73	8.80486e-6
896.26	1.00000e-13
900.78	8.45730e-6
905.31	3.51036e-5
909.83	1.00000e-13
914.36	1.00000e-13
918.89	1.00000e-13
923.41	1.00000e-13
927.94	1.00000e-13
932.47	1.00000e-13
937.00	1.00000e-13
941.52	1.00000e-13
946.05	1.00000e-13
950.57	1.00000e-13
955.10	1.00000e-13
959.63	1.00000e-13
964.16	1.00000e-13
968.68	1.00000e-13
973.21	1.00000e-13
977.74	6.37194e-6
982.26	1.00000e-13
986.79	1.03110e-5
991.31	1.00000e-13
995.84	1.00000e-13
1000.37	1.00000e-13
1004.89	8.45730e-6
1009.42	6.37194e-6
1013.95	1.00000e-13
1018.47	1.73780e-5
1023.00	1.00000e-13
1027.53	1.00000e-13
1032.05	1.00000e-13
1036.58	1.00000e-13
1041.11	1.00000e-13
1045.63	1.00000e-13
1050.16	1.00000e-13
1054.68	1.00000e-13
1059.21	1.00000e-13
1063.74	1.00000e-13
1068.26	1.00000e-13
1072.79	1.00000e-13
1077.32	1.00000e-13
1081.85	1.00000e-13
1086.37	1.00000e-13
1090.90	1.00000e-13
1095.42	1.00000e-13
1099.95	1.39024e-6
1104.48	1.00000e-13
1109.00	1.00000e-13
1113.53	6.60365e-6
1118.06	1.00000e-13
1122.58	1.00000e-13
1127.11	1.00000e-13
1131.64	1.00000e-13
1136.16	1.00000e-13
1140.69	1.00000e-13
1145.22	1.00000e-13
1149.74	4.40243e-6
1154.27	1.00000e-13
1158.79	1.00000e-13
1163.32	1.00000e-13
1167.85	1.00000e-13
1172.38	1.00000e-13
1176.90	1.00000e-13
1181.43	1.00000e-13
1185.96	1.00000e-13
1190.48	1.00000e-13
1195.01	1.00000e-13
1199.53	1.00000e-13
1204.06	1.00000e-13
1208.59	1.00000e-13
1213.11	1.00000e-13
1217.64	8.31828e-5
1222.17	1.00000e-13
1226.69	1.00000e-13
1231.22	1.00000e-13
1235.75	1.00000e-13
1240.27	1.00000e-13
1244.80	1.00000e-13
1249.33	1.00000e-13
1253.85	1.00000e-13
1258.38	1.00000e-13
1262.91	1.00000e-13
1267.43	1.00000e-13
1271.96	6.91066e-4
1276.49	7.54681e-3
1281.01	8.74009e-3
1285.54	1.63006e-4
1290.06	4.55304e-5
1294.59	1.00000e-13
1299.12	1.00000e-13
1303.65	1.00000e-13
1308.17	1.00000e-13
1312.70	1.00000e-13
1314.15	1.00000e-13

File: 005dB1-toyopearls TG.txt
Filename	005dB1-toyopearls
Instrument name
Operator	Gwenael
rundate	2025-01-13
Sample name	005dB1-toyopearls
[step]
Step 1
Time	Temperature	Weight	Weight	Deriv. Weight
min	°C	mg	%	% / °C
0.01	26.66	4.224	99.944	-2.07129e-3
4.73	41.22	4.240	100.320	-4.67533e-3
9.53	64.56	4.237	100.263	-6.59821e-3
14.33	88.25	4.231	100.112	-7.64382e-3
19.13	103.05	4.220	99.865	-0.0104702
23.93	100.49	4.214	99.716	-0.0146264
28.73	111.56	4.213	99.691	-0.0209429
33.53	134.59	4.203	99.448	-0.0273885
38.33	158.76	4.177	98.837	-0.0340780
43.13	182.87	4.132	97.766	-0.0425750
47.93	206.87	4.078	96.499	-0.0491660
52.73	230.90	4.024	95.212	-0.0526777
57.53	254.95	3.970	93.948	-0.0580679
62.33	278.99	3.921	92.774	-0.0666013
67.13	300.05	3.858	91.297	-0.0802388
71.93	301.04	3.810	90.166	-0.105824
76.73	299.66	3.781	89.461	-0.174835
81.53	300.05	3.757	88.896	0.944872
86.33	300.02	3.736	88.396	0.912421
91.13	299.99	3.716	87.940	-4.22133
95.93	300.01	3.698	87.516	20.0405
100.73	300.00	3.682	87.121	-5.35705
105.53	300.00	3.666	86.738	8.06117
110.33	300.00	3.650	86.375	261.078
115.13	300.00	3.635	86.012	176.436
119.93	300.00	3.620	85.663	-36.9723
124.73	300.00	3.606	85.324	-152.294
129.52	300.00	3.592	84.991	-199.780
134.33	300.00	3.578	84.674	-148.500
139.13	300.00	3.565	84.349	-69.0492
143.93	300.00	3.551	84.036	134.897
148.73	300.00	3.538	83.730	247.871
153.53	300.00	3.526	83.426	121.879
158.33	300.00	3.513	83.136	-38.0204
163.13	300.00	3.501	82.837	-107.363
167.93	300.00	3.488	82.544	-292.057
172.73	300.00	3.476	82.254	-140.338
177.53	300.00	3.464	81.970	-13.3064
182.33	300.00	3.452	81.689	122.117
187.13	300.00	3.441	81.417	118.294
191.93	300.00	3.429	81.149	82.3183
196.73	300.00	3.418	80.882	70.5594
201.53	300.00	3.407	80.622	-77.9662
206.33	300.00	3.396	80.368	-2.43670
211.13	300.00	3.385	80.109	-24.8381
215.93	300.00	3.374	79.849	49.0326
220.73	300.00	3.364	79.597	-125.013
225.53	300.00	3.353	79.351	40.2074
230.33	300.00	3.343	79.105	65.9564
235.13	300.00	3.333	78.863	-26.0625
239.93	300.00	3.323	78.623	-76.3779
244.73	300.00	3.313	78.387	70.9315
249.53	300.00	3.302	78.144	92.4761
254.33	300.00	3.293	77.922	-18.7834
259.13	300.00	3.283	77.682	-58.1945
263.92	300.00	3.274	77.468	1.85507
268.73	300.00	3.264	77.228	-44.3028
273.53	300.00	3.254	76.998	-23.0203
278.33	300.00	3.245	76.779	95.4967
283.13	300.00	3.235	76.556	100.961
287.93	300.00	3.226	76.339	40.8635
292.73	300.00	3.217	76.119	-39.4106
297.53	300.00	3.208	75.903	-132.136
302.33	300.00	3.199	75.693	71.9552
307.13	300.00	3.189	75.467	-97.7435
311.93	300.00	3.180	75.254	39.8531
316.73	300.00	3.172	75.056	111.927
321.53	300.00	3.163	74.850	34.8457
326.33	300.00	3.154	74.645	19.1778
331.13	300.00	3.146	74.435	20.2308
335.93	300.00	3.137	74.234	-78.4716
340.73	300.00	3.129	74.033	-142.510
345.53	300.00	3.120	73.819	-74.8954
350.33	300.00	3.111	73.624	-14.6347
355.13	300.00	3.103	73.429	-23.3118
359.93	300.00	3.095	73.235	-10.3169
364.73	300.00	3.087	73.042	62.7981
369.53	300.00	3.079	72.849	9.66061
374.33	300.00	3.071	72.658	-39.7017
379.13	300.00	3.062	72.454	-98.2063
383.93	300.00	3.054	72.279	108.337
388.73	300.00	3.046	72.082	-82.1551
393.53	300.00	3.038	71.896	14.8520
398.33	300.00	3.030	71.701	53.4287
403.13	300.00	3.023	71.525	-22.0200
407.93	300.00	3.015	71.349	-63.1761
412.73	300.00	3.007	71.149	-0.277970
417.53	300.00	2.999	70.969	40.0289
422.33	300.00	2.991	70.787	52.3567
427.13	300.00	2.984	70.603	137.749
431.93	300.00	2.976	70.425	88.9504
436.73	300.00	2.969	70.248	47.8499
441.53	300.00	2.961	70.067	45.1954
446.33	300.00	2.954	69.892	-83.0176
451.13	300.00	2.946	69.720	-35.3293
455.93	300.00	2.939	69.542	-33.6172
460.73	300.00	2.931	69.368	-12.7626
465.53	300.00	2.924	69.195	-1.83602
470.33	300.00	2.917	69.020	41.9655
475.13	300.00	2.910	68.862	48.2950
479.93	300.00	2.903	68.682	-131.269
484.73	300.00	2.895	68.511	-41.2476
489.53	300.00	2.888	68.344	53.5680
494.33	300.00	2.881	68.174	94.4902
499.13	300.00	2.874	68.004	15.5902
503.93	300.00	2.867	67.840	48.6894
508.73	300.00	2.860	67.676	-14.8124
513.53	300.00	2.853	67.513	-77.3719
518.33	300.00	2.846	67.345	3.54986
523.13	300.00	2.839	67.185	33.0593
527.93	300.00	2.832	67.018	-78.5246
532.72	300.00	2.825	66.857	-17.0984
537.53	300.00	2.818	66.691	-25.5162
542.33	300.00	2.812	66.531	45.8397
547.13	300.00	2.805	66.364	79.7691
551.93	300.00	2.798	66.214	21.9739
556.73	300.00	2.791	66.055	-62.9942
561.53	300.00	2.785	65.900	35.4337
566.33	300.00	2.778	65.738	-47.3007
571.13	300.00	2.771	65.580	-32.5885
575.93	300.00	2.765	65.427	48.8280
580.73	300.00	2.758	65.274	31.1657
585.53	300.00	2.752	65.122	-75.2967
590.33	300.00	2.745	64.961	-10.1205
595.13	300.00	2.739	64.803	87.3082
599.93	300.00	2.732	64.653	62.4015
604.73	300.00	2.725	64.493	21.1540
609.53	300.00	2.719	64.350	47.3184
614.33	300.00	2.713	64.195	-71.1522
619.13	300.00	2.707	64.048	-119.265
623.93	300.00	2.701	63.907	-37.3288
628.73	300.00	2.695	63.760	30.4064
633.53	300.00	2.688	63.606	-44.2238
638.33	300.00	2.682	63.456	-50.0957
643.13	300.00	2.676	63.316	12.0560
647.93	300.00	2.669	63.150	12.1358
652.73	300.00	2.663	63.019	80.7382
657.53	300.00	2.657	62.869	33.5208
662.33	300.00	2.651	62.725	9.97748
667.13	300.00	2.644	62.577	-1.32071
671.93	300.00	2.638	62.430	-32.5830
676.73	300.00	2.632	62.292	-12.4039
681.53	300.00	2.626	62.149	-48.7835
686.33	300.00	2.620	61.999	8.98039
691.13	300.00	2.615	61.868	-9.48627
695.93	300.00	2.608	61.724	79.1974
700.73	300.00	2.603	61.585	48.9171
705.53	300.00	2.596	61.441	74.3627
710.33	300.00	2.591	61.312	-61.2850
715.13	300.00	2.585	61.163	-85.4910
719.93	300.00	2.579	61.035	-38.9982
724.73	300.00	2.573	60.896	-2.38705
729.53	300.00	2.568	60.755	-62.1231
734.33	300.00	2.562	60.628	38.7456
739.13	300.00	2.556	60.474	0.215744
743.93	300.00	2.551	60.354	6.64850
748.73	300.00	2.544	60.201	0.104894
753.53	300.00	2.539	60.080	23.6795
758.33	300.00	2.533	59.948	5.80573
763.13	300.00	2.528	59.815	28.2833
767.93	300.00	2.522	59.676	-66.3866
772.73	300.00	2.516	59.539	-43.3035
777.53	300.00	2.510	59.406	-31.4952
782.33	300.00	2.505	59.273	-19.7780
787.13	300.00	2.499	59.140	-76.3559
791.93	300.00	2.494	59.007	0.226421
796.73	300.00	2.488	58.880	-30.6483
801.53	300.00	2.483	58.752	82.5329
806.33	300.00	2.477	58.621	73.5999
811.13	300.00	2.472	58.490	18.8321
815.93	300.00	2.467	58.375	-5.37174
820.73	300.00	2.461	58.238	16.8683
825.53	300.00	2.456	58.108	-62.7299
830.33	300.00	2.450	57.985	-23.9576
835.13	300.00	2.445	57.859	53.7412
839.93	300.00	2.440	57.739	26.3321
844.73	300.00	2.435	57.610	8.82656
849.53	300.00	2.429	57.487	-15.5460
854.33	300.00	2.424	57.360	-57.1974
859.13	300.00	2.419	57.234	-113.270
863.93	300.00	2.414	57.111	13.9015
868.73	300.00	2.408	56.988	51.4240
873.53	300.00	2.403	56.869	23.3676
878.33	300.00	2.398	56.746	40.3800
883.13	300.00	2.393	56.624	24.6968
887.93	300.00	2.388	56.499	-69.3007
892.73	300.00	2.383	56.380	-2.92526
897.53	300.00	2.378	56.262	-22.2706
902.33	300.00	2.373	56.143	-42.0898
907.13	300.00	2.367	56.019	21.7260
911.93	300.00	2.362	55.900	-0.353059
916.73	300.00	2.357	55.777	-1.55277
921.53	300.00	2.352	55.662	28.0176
926.33	300.00	2.347	55.546	42.3271
931.13	300.00	2.342	55.428	-63.5418
935.93	300.00	2.337	55.311	-4.29419
940.73	300.00	2.332	55.192	2.60761
945.53	300.00	2.328	55.080	40.4289
950.33	300.00	2.323	54.965	67.2992
955.13	300.00	2.318	54.847	47.4762
959.93	300.00	2.313	54.726	-32.6672
964.73	300.00	2.309	54.627	-43.4352
969.53	300.00	2.303	54.497	-41.1541
974.33	300.00	2.298	54.379	-68.5111
979.13	300.00	2.293	54.258	-16.6961
983.93	300.00	2.288	54.148	-55.6210
988.73	300.00	2.284	54.035	-18.8856
993.53	300.00	2.279	53.937	-4.79781
998.33	300.00	2.274	53.816	47.5573
1003.13	300.00	2.270	53.711	89.2670
1007.93	300.00	2.265	53.595	24.1083
1012.73	300.00	2.260	53.481	-12.6988
1017.53	300.00	2.256	53.376	-68.5802
1022.33	300.00	2.251	53.258	-81.9917
1027.13	300.00	2.247	53.163	-65.3535
1031.93	300.00	2.242	53.043	18.3182
1036.73	300.00	2.236	52.920	13.4330
1041.53	300.00	2.232	52.821	89.2540
1046.32	300.00	2.228	52.715	58.6532
1051.13	300.00	2.224	52.618	46.2596
1055.93	300.00	2.219	52.510	-12.1269
1060.73	300.00	2.215	52.404	7.04662
1065.53	300.00	2.210	52.291	-40.0268
1070.32	300.00	2.205	52.184	-37.8037
1075.13	300.00	2.200	52.070	-60.3927
1079.93	300.00	2.196	51.972	-2.99780
1084.73	300.00	2.192	51.862	13.2413
1089.53	300.00	2.188	51.764	29.7359
1094.33	300.00	2.183	51.667	63.5398
1099.13	300.00	2.179	51.555	29.9556
1103.93	300.00	2.175	51.462	-113.617
1108.73	300.00	2.170	51.360	12.6450
1113.53	300.00	2.166	51.247	66.9586
1118.33	300.00	2.162	51.151	4.13557
1123.13	300.00	2.157	51.051	30.8920
1127.93	300.00	2.153	50.954	-33.4499
1132.73	300.00	2.149	50.847	-4.30419
1137.53	300.00	2.145	50.748	-14.6548
1142.33	300.00	2.140	50.647	-16.1872
1147.13	300.00	2.136	50.543	12.1666
1151.93	300.00	2.132	50.442	-2.79747
1156.73	300.00	2.128	50.359	-10.8897
1161.53	300.00	2.123	50.245	-23.7329
1166.33	300.00	2.119	50.149	-15.3950
1171.13	300.00	2.115	50.051	12.2959
1175.93	300.00	2.111	49.953	27.0842
1180.73	300.00	2.107	49.860	34.4224
1185.53	300.00	2.103	49.759	-5.76573
1190.33	300.00	2.099	49.661	4.02163
1195.13	300.00	2.094	49.561	-8.35928
1199.93	300.00	2.090	49.466	-33.1133
1204.73	300.00	2.087	49.375	-11.2075
1209.53	300.00	2.082	49.273	-4.08870
1214.33	300.00	2.078	49.180	20.5034
1219.13	300.00	2.074	49.083	-12.5004
1223.93	300.00	2.070	48.989	27.8452
1228.73	300.00	2.066	48.896	38.5745
1233.53	300.00	2.062	48.801	15.8775
1238.33	300.00	2.058	48.706	22.0389
1243.13	300.00	2.054	48.614	29.3788
1247.93	300.00	2.051	48.522	49.0685
1252.73	300.00	2.047	48.437	-0.0230699
1257.53	300.00	2.043	48.338	-0.0191474
1262.33	300.00	2.039	48.247	-0.0750385
1267.13	313.29	2.035	48.161	-0.202120
1271.93	359.14	1.990	47.082	-0.242410
1276.73	407.91	1.507	35.664	-0.231047
1281.53	456.05	0.256	6.067	-0.205231
1286.33	504.21	0.131	3.103	-0.149981
1291.13	552.34	0.128	3.022	-0.0615228
1295.93	600.45	0.126	2.976	-4.34409e-3
1300.73	648.54	0.123	2.921	-1.05215e-3
1305.53	696.62	0.121	2.853	-9.83822e-4
1310.33	744.69	0.119	2.827	-9.00600e-4
1314.53	786.74	0.119	2.827	-7.23981e-4