Folder: data-visualizer/data/TGA/005d-L_M (part 12)

File: styrofoam.txt
Filename	styrofoam
Instrument name
Operator	Galyna
rundate	2025-02-24
Sample name	styrofoam
[step]
Step 1
Time	Temperature	Weight	Weight	Deriv. Weight
min	°C	mg	%	% / °C
0.00	27.73	434.836	99.999	-1.21469e-5
5.21	44.57	434.837	99.999	-3.07586e-5
10.46	69.65	434.830	99.998	-3.33920e-5
15.71	96.00	434.824	99.997	-6.39351e-5
20.96	102.22	434.819	99.995	-8.66714e-5
26.21	101.58	434.817	99.995	-1.41992e-5
31.46	125.37	434.817	99.995	-1.08051e-5
36.71	151.36	434.815	99.994	-1.85652e-5
41.96	177.81	434.812	99.994	-3.00837e-5
47.21	204.07	434.808	99.993	-5.00095e-5
52.46	230.35	434.800	99.991	-7.73720e-5
57.71	256.66	434.791	99.989	-1.27589e-4
62.96	282.95	434.773	99.985	-2.15593e-4
68.21	301.49	434.747	99.979	-3.78554e-4
73.46	300.18	434.730	99.975	-4.26089e-4
78.71	299.84	434.720	99.973	2.26440e-3
83.96	300.06	434.715	99.972	-7.20540e-3
89.21	299.99	434.709	99.970	0.0278768
94.46	300.00	434.703	99.969	-0.0733501
99.71	300.00	434.698	99.968	-0.0455164
104.96	300.00	434.695	99.967	0.307665
110.21	300.00	434.688	99.965	-4.67742e-4
115.46	300.00	434.686	99.965	0.120293
120.71	300.00	434.681	99.964	-0.305825
125.96	300.00	434.676	99.962	0.323371
131.21	300.00	434.677	99.963	0.447828
136.46	300.00	434.667	99.961	0.0471606
141.71	300.00	434.663	99.959	-0.513701
146.96	300.00	434.658	99.958	-0.0256500
152.21	300.00	434.652	99.957	0.369880
157.46	300.00	434.651	99.957	-0.115673
162.71	300.00	434.644	99.955	-0.431650
167.96	300.00	434.641	99.954	-0.304118
173.21	300.00	434.636	99.953	0.267167
178.46	300.00	434.633	99.953	0.320114
183.71	300.00	434.631	99.952	0.268445
188.96	300.00	434.628	99.951	-0.319578
194.21	300.00	434.624	99.950	-0.330609
199.46	300.00	434.622	99.950	0.210448
204.71	300.00	434.618	99.949	0.0628210
209.96	300.00	434.612	99.948	-0.178975
215.21	300.00	434.611	99.948	-0.177279
220.46	300.00	434.604	99.946	-0.203842
225.71	300.00	434.604	99.946	2.32668e-3
230.96	300.00	434.600	99.945	0.199146
236.21	300.00	434.600	99.945	0.131872
241.46	300.00	434.595	99.944	-0.148439
246.71	300.00	434.594	99.944	-0.0853161
251.96	300.00	434.591	99.943	0.206054
257.21	300.00	434.586	99.942	0.0435866
262.46	300.00	434.585	99.942	-0.0639268
267.71	300.00	434.581	99.941	0.275470
272.96	300.00	434.582	99.941	0.163412
278.21	300.00	434.577	99.940	-0.123192
283.46	300.00	434.572	99.938	0.0717135
288.71	300.00	434.569	99.938	0.322207
293.96	300.00	434.567	99.937	0.0954406
299.21	300.00	434.563	99.937	0.0465068
304.46	300.00	434.561	99.936	0.0298911
309.71	300.00	434.560	99.936	-0.0418294
314.96	300.00	434.555	99.935	0.0515074
320.21	300.00	434.553	99.934	0.150720
325.46	300.00	434.549	99.933	-0.133304
330.71	300.00	434.548	99.933	-0.0529300
335.96	300.00	434.546	99.933	0.102916
341.21	300.00	434.542	99.932	0.153983
346.46	300.00	434.541	99.931	0.0603098
351.71	300.00	434.536	99.930	-0.0813631
356.96	300.00	434.535	99.930	0.205622
362.21	300.00	434.531	99.929	0.0798938
367.46	300.00	434.528	99.928	0.0549412
372.71	300.00	434.526	99.928	-0.108795
377.96	300.00	434.524	99.927	0.0298657
383.21	300.00	434.521	99.927	0.138230
388.46	300.00	434.519	99.926	0.0804801
393.71	300.00	434.515	99.925	-0.0427401
398.96	300.00	434.517	99.926	-0.223327
404.21	300.00	434.512	99.925	0.0224002
409.46	300.00	434.511	99.925	0.0977208
414.71	300.00	434.508	99.924	0.0532152
419.96	300.00	434.500	99.922	0.0893353
425.21	300.00	434.504	99.923	-0.0452559
430.46	300.00	434.502	99.922	-0.108920
435.71	300.00	434.499	99.922	-0.0894807
440.96	300.00	434.495	99.921	0.121797
446.21	300.00	434.495	99.921	0.0836109
451.46	300.00	434.493	99.920	0.0239538
456.71	300.00	434.491	99.920	0.0284174
461.96	300.00	434.489	99.919	0.0944477
467.21	300.00	434.486	99.919	0.164146
472.46	300.00	434.483	99.918	0.156476
477.71	300.00	434.482	99.918	-0.0274231
482.96	300.00	434.482	99.918	0.0780140
488.21	300.00	434.477	99.917	-0.0685977
493.46	300.00	434.477	99.917	-0.0665036
498.71	300.00	434.476	99.917	-0.0151671
503.96	300.00	434.473	99.916	0.228767
509.21	300.00	434.472	99.915	-0.0759717
514.46	300.00	434.469	99.915	0.0562831
519.71	300.00	434.468	99.915	0.0597059
524.96	300.00	434.465	99.914	-0.0564201
530.21	300.00	434.461	99.913	-0.0154423
535.46	300.00	434.459	99.913	0.147368
540.71	300.00	434.459	99.913	-0.0278475
545.96	300.00	434.464	99.914	0.113410
551.21	300.00	434.457	99.912	0.0758251
556.46	300.00	434.455	99.912	-0.0298274
561.71	300.00	434.453	99.911	-0.0359517
566.96	300.00	434.452	99.911	0.0322993
572.21	300.00	434.450	99.910	0.0828290
577.46	300.00	434.447	99.910	-0.0310727
582.71	300.00	434.446	99.910	0.0633911
587.96	300.00	434.444	99.909	0.139901
593.21	300.00	434.444	99.909	0.0147297
598.46	300.00	434.442	99.909	0.0382908
603.71	300.00	434.437	99.908	0.0887153
608.96	300.00	434.440	99.908	-0.0648543
614.21	300.00	434.438	99.908	0.0944498
619.46	300.00	434.432	99.906	0.138493
624.71	300.00	434.434	99.907	0.0246862
629.96	300.00	434.432	99.907	0.147094
635.21	300.00	434.434	99.907	-0.0871346
640.46	300.00	434.429	99.906	0.0629089
645.71	300.00	434.427	99.905	0.142800
650.96	300.00	434.424	99.904	-0.143032
656.21	300.00	434.422	99.904	-0.0935501
661.46	300.00	434.419	99.903	-0.104495
666.71	300.00	434.419	99.903	-0.111424
671.96	300.00	434.417	99.903	0.0519384
677.21	300.00	434.414	99.902	0.0375939
682.46	300.00	434.410	99.901	-0.0145899
687.71	300.00	434.409	99.901	0.0690749
692.96	300.00	434.412	99.902	2.27074e-3
698.21	300.00	434.407	99.901	-0.184237
703.46	300.00	434.407	99.901	-0.197744
708.71	300.00	434.404	99.900	0.0277037
713.96	300.00	434.404	99.900	0.135544
719.21	300.00	434.400	99.899	0.108871
724.46	300.00	434.402	99.900	0.0375529
729.71	300.00	434.400	99.899	-0.0622128
734.96	300.00	434.399	99.899	0.103040
740.21	300.00	434.397	99.898	0.0567507
745.46	300.00	434.396	99.898	-0.0603899
750.71	300.00	434.395	99.898	6.07580e-3
755.96	300.00	434.394	99.898	0.0573845
761.21	300.00	434.391	99.897	0.0929443
766.46	300.00	434.391	99.897	0.0264854
771.71	300.00	434.390	99.897	-0.0161671
776.96	300.00	434.389	99.896	0.108483
782.21	300.00	434.385	99.896	0.133330
787.46	300.00	434.387	99.896	0.0463287
792.71	300.00	434.384	99.895	-0.101383
797.96	300.00	434.385	99.896	-0.0220226
803.21	300.00	434.378	99.894	0.184213
808.46	300.00	434.378	99.894	0.0948217
813.71	300.00	434.375	99.893	-0.0160390
818.96	300.00	434.376	99.894	0.0673445
824.21	300.00	434.376	99.894	0.149576
829.46	300.00	434.372	99.893	8.42003e-3
834.71	300.00	434.372	99.892	-0.129041
839.96	300.00	434.369	99.892	-0.179611
845.21	300.00	434.367	99.891	-0.0875689
850.46	300.00	434.363	99.891	0.0677831
855.71	300.00	434.365	99.891	0.148197
860.96	300.00	434.364	99.891	0.139707
866.21	300.00	434.362	99.890	-0.0561868
871.46	300.00	434.357	99.889	-0.0885161
876.71	300.00	434.354	99.889	-0.0653595
881.96	300.00	434.353	99.888	-0.0253182
887.21	300.00	434.356	99.889	0.106329
892.46	300.00	434.347	99.887	-0.0268706
897.71	300.00	434.348	99.887	0.112898
902.96	300.00	434.346	99.887	0.0626895
908.21	300.00	434.344	99.886	-0.0980090
913.46	300.00	434.343	99.886	-0.0229643
918.71	300.00	434.342	99.886	0.0975510
923.96	300.00	434.340	99.885	-3.34023e-3
929.21	300.00	434.339	99.885	-0.0370506
934.46	300.00	434.338	99.885	0.150146
939.71	300.00	434.334	99.884	0.158493
944.96	300.00	434.332	99.883	0.161822
950.21	300.00	434.332	99.883	0.176192
955.46	300.00	434.335	99.884	0.135031
960.71	300.00	434.329	99.883	-0.131986
965.96	300.00	434.326	99.882	-0.210212
971.21	300.00	434.324	99.882	-0.146993
976.46	300.00	434.321	99.881	0.147334
981.71	300.00	434.321	99.881	0.131194
986.96	300.00	434.318	99.880	0.134190
992.21	300.00	434.316	99.880	0.120018
997.46	300.00	434.315	99.880	0.0541757
1002.71	300.00	434.316	99.880	-0.147125
1007.96	300.00	434.312	99.879	-0.155807
1013.21	300.00	434.309	99.878	0.204804
1018.46	300.00	434.307	99.878	-0.0302050
1023.71	300.00	434.307	99.878	-0.0202179
1028.96	300.00	434.303	99.877	-0.0179827
1034.21	300.00	434.303	99.877	0.110465
1039.46	300.00	434.302	99.877	0.0993455
1044.71	300.00	434.300	99.876	0.0933791
1049.96	300.00	434.300	99.876	-0.0352229
1055.21	300.00	434.297	99.875	-0.167857
1060.46	300.00	434.294	99.875	-0.211425
1065.71	300.00	434.292	99.874	-0.0669412
1070.96	300.00	434.290	99.874	-0.0955637
1076.21	300.00	434.289	99.873	0.0202292
1081.46	300.00	434.288	99.873	0.169686
1086.71	300.00	434.285	99.873	0.236084
1091.96	300.00	434.284	99.872	-0.0206481
1097.21	300.00	434.284	99.872	-0.0547625
1102.46	300.00	434.282	99.872	-0.0121280
1107.71	300.00	434.280	99.871	-0.0374018
1112.96	300.00	434.278	99.871	0.0114153
1118.21	300.00	434.275	99.870	0.119896
1123.46	300.00	434.276	99.870	0.127538
1128.71	300.00	434.274	99.870	0.160983
1133.96	300.00	434.273	99.870	0.130856
1139.21	300.00	434.269	99.869	0.0536067
1144.46	300.00	434.269	99.869	-0.0725806
1149.71	300.00	434.267	99.868	-0.177423
1154.96	300.00	434.268	99.869	-0.0232052
1160.21	300.00	434.264	99.868	0.165174
1165.46	300.00	434.262	99.867	-4.15585e-3
1170.71	300.00	434.261	99.867	-7.40294e-3
1175.96	300.00	434.261	99.867	0.186604
1181.21	300.00	434.256	99.866	0.150337
1186.46	300.00	434.258	99.866	0.0339483
1191.71	300.00	434.258	99.866	-0.237548
1196.96	300.00	434.255	99.866	-0.0766770
1202.21	300.00	434.253	99.865	-0.0393002
1207.46	300.00	434.250	99.864	0.0787276
1212.71	300.00	434.245	99.863	-0.0109861
1217.96	300.00	434.248	99.864	0.0854707
1223.21	300.00	434.245	99.863	0.0961842
1228.46	300.00	434.243	99.863	0.0794368
1233.71	300.00	434.242	99.863	-0.0778619
1238.96	300.00	434.244	99.863	-0.187749
1244.21	300.00	434.242	99.863	0.0423163
1249.46	300.00	434.236	99.861	0.148804
1254.71	300.00	434.233	99.861	-0.0957274
1259.96	300.00	434.234	99.861	-2.42433e-5
1265.21	300.97	434.232	99.860	-1.05308e-4
1270.46	346.07	434.224	99.859	-2.06516e-3
1275.71	399.27	433.873	99.778	-6.74010e-3
1280.96	452.01	430.588	99.022	-6.32779e-3
1286.21	504.65	430.530	99.009	-1.18186e-3
1291.46	557.29	430.525	99.008	-1.11746e-5
1296.71	609.92	430.523	99.007	-4.79282e-6
1301.96	662.51	430.526	99.008	4.62514e-6
1307.21	715.09	430.523	99.007	1.59513e-5
1312.46	767.66	430.537	99.011	2.36733e-5
1314.38	786.85	430.538	99.011	3.19638e-5

File: styrofoam_000001 -temp_104 AMU_XIC
Time	Ion Current
min	mA
0.00	5.08597e-5
4.53	3.05853e-5
9.05	2.67622e-5
13.58	3.68414e-5
18.11	4.64572e-5
22.63	1.00000e-13
27.16	4.39085e-5
31.68	2.23597e-5
36.21	9.73169e-6
40.74	1.00000e-13
45.27	8.22560e-6
49.79	2.32865e-5
54.32	6.14023e-6
58.85	1.00000e-13
63.37	1.62195e-6
67.90	1.00000e-13
72.43	1.00000e-13
76.95	7.53048e-6
81.48	1.00000e-13
86.01	1.00000e-13
90.53	1.00000e-13
95.06	1.00000e-13
99.59	1.00000e-13
104.11	1.00000e-13
108.64	4.28658e-6
113.16	1.36707e-5
117.69	5.67682e-5
122.22	1.00000e-13
126.74	2.40975e-5
131.27	1.00000e-13
135.79	1.00000e-13
140.32	1.00000e-13
144.85	1.00000e-13
149.37	1.00000e-13
153.90	1.00000e-13
158.43	1.11219e-5
162.95	1.00793e-5
167.48	8.10974e-6
172.01	1.00000e-13
176.53	1.00000e-13
181.06	1.00000e-13
185.59	1.00000e-13
190.11	1.00000e-13
194.64	1.00000e-13
199.17	1.67988e-5
203.69	1.00000e-13
208.22	1.00000e-13
212.75	1.00000e-13
217.27	1.00000e-13
221.80	1.00000e-13
226.33	1.00000e-13
230.85	1.00000e-13
235.38	1.26280e-5
239.90	1.00000e-13
244.43	1.00000e-13
248.96	1.00000e-13
253.49	1.00000e-13
258.01	1.00000e-13
262.54	7.76218e-6
267.06	1.00000e-13
271.59	1.00000e-13
276.12	5.21341e-6
280.65	1.00000e-13
285.17	1.00000e-13
289.70	1.00000e-13
294.22	1.00000e-13
298.75	2.08536e-6
303.28	1.00000e-13
307.80	1.00000e-13
312.33	4.51829e-6
316.85	1.00000e-13
321.38	4.98170e-6
325.91	1.00000e-13
330.44	1.00000e-13
334.96	1.00000e-13
339.49	1.00000e-13
344.01	1.00000e-13
348.54	1.00000e-13
353.07	1.00000e-13
357.59	1.00000e-13
362.12	4.40243e-6
366.65	1.00000e-13
371.18	1.00000e-13
375.70	1.00000e-13
380.23	1.00000e-13
384.75	1.00000e-13
389.28	3.12804e-6
393.81	1.00000e-13
398.33	1.00000e-13
402.86	1.63353e-5
407.39	1.00000e-13
411.91	1.00000e-13
416.44	2.53719e-5
420.97	1.15853e-7
425.49	1.00000e-13
430.02	1.00000e-13
434.55	2.89634e-6
439.07	1.00000e-13
443.60	1.00000e-13
448.13	8.22560e-6
452.65	1.00000e-13
457.18	1.00000e-13
461.71	1.00000e-13
466.23	1.00000e-13
470.76	5.44511e-6
475.29	1.00000e-13
479.81	1.00000e-13
484.34	1.00000e-13
488.86	1.00000e-13
493.39	1.00000e-13
497.92	2.43292e-6
502.44	1.00000e-13
506.97	1.00000e-13
511.49	1.00000e-13
516.02	1.00000e-13
520.55	1.00000e-13
525.08	1.00000e-13
529.60	1.00000e-13
534.13	1.00000e-13
538.65	1.00000e-13
543.18	1.03110e-5
547.71	1.00000e-13
552.24	1.00000e-13
556.76	4.74999e-6
561.29	1.00000e-13
565.82	1.00000e-13
570.34	1.00000e-13
574.87	1.00000e-13
579.39	1.00000e-13
583.92	1.00000e-13
588.45	1.05427e-5
592.97	1.00000e-13
597.50	1.00000e-13
602.03	1.00000e-13
606.55	1.00000e-13
611.08	1.00000e-13
615.60	1.00000e-13
620.13	1.00000e-13
624.66	1.00000e-13
629.18	1.00000e-13
633.71	1.45975e-5
638.24	1.00000e-13
642.76	1.00000e-13
647.29	1.00000e-13
651.82	1.00000e-13
656.34	1.00000e-13
660.87	1.00000e-13
665.40	1.00000e-13
669.92	1.00000e-13
674.45	1.34390e-5
678.98	1.00000e-13
683.50	1.00000e-13
688.03	1.00000e-13
692.56	1.00000e-13
697.08	4.51829e-6
701.61	1.26280e-5
706.14	1.00000e-13
710.66	1.00000e-13
715.19	1.00000e-13
719.72	1.00000e-13
724.24	1.00000e-13
728.77	1.00000e-13
733.30	1.00000e-13
737.82	1.00000e-13
742.35	1.00000e-13
746.88	6.95121e-7
751.40	1.00000e-13
755.93	3.35975e-6
760.45	2.94268e-5
764.98	1.00000e-13
769.51	1.00000e-13
774.03	1.00000e-13
778.56	1.00000e-13
783.09	1.00000e-13
787.61	1.00000e-13
792.14	1.00000e-13
796.66	1.06585e-5
801.19	1.00000e-13
805.72	4.86585e-6
810.25	1.00000e-13
814.77	1.00000e-13
819.30	4.17073e-6
823.82	1.00000e-13
828.35	1.00000e-13
832.88	4.40243e-6
837.40	1.00000e-13
841.93	1.00000e-13
846.46	1.00000e-13
850.98	1.00000e-13
855.51	1.00000e-13
860.04	1.00000e-13
864.56	1.00000e-13
869.09	1.00000e-13
873.62	1.00000e-13
878.14	1.00000e-13
882.67	1.00000e-13
887.20	1.00000e-13
891.72	1.00000e-13
896.25	1.00000e-13
900.77	1.00000e-13
905.30	1.00000e-13
909.83	6.37194e-6
914.35	1.00000e-13
918.88	1.00000e-13
923.41	1.00000e-13
927.93	1.00000e-13
932.46	1.00000e-13
936.99	1.00000e-13
941.51	1.00000e-13
946.04	1.00000e-13
950.56	1.00000e-13
955.09	1.00000e-13
959.62	1.00000e-13
964.14	1.00000e-13
968.67	1.00000e-13
973.20	1.00000e-13
977.72	1.00000e-13
982.25	1.00000e-13
986.78	1.00000e-13
991.30	1.00000e-13
995.83	1.00000e-13
1000.36	1.00000e-13
1004.88	1.00000e-13
1009.41	1.00000e-13
1013.94	1.00000e-13
1018.46	1.00000e-13
1022.99	1.00000e-13
1027.51	1.00000e-13
1032.04	1.00000e-13
1036.57	1.04268e-5
1041.09	1.00000e-13
1045.62	1.00000e-13
1050.15	1.00000e-13
1054.68	1.00000e-13
1059.20	1.00000e-13
1063.73	1.55244e-5
1068.25	1.00000e-13
1072.78	1.00000e-13
1077.31	1.00000e-13
1081.83	1.00000e-13
1086.36	1.00000e-13
1090.89	1.00000e-13
1095.41	1.00000e-13
1099.94	1.00000e-13
1104.47	1.00000e-13
1108.99	1.00000e-13
1113.52	1.00000e-13
1118.05	1.00000e-13
1122.57	1.00000e-13
1127.10	1.00000e-13
1131.62	1.00000e-13
1136.15	1.00000e-13
1140.68	1.00000e-13
1145.20	1.00000e-13
1149.73	5.56097e-6
1154.26	1.00000e-13
1158.79	1.00000e-13
1163.31	1.00000e-13
1167.84	1.00000e-13
1172.36	1.00000e-13
1176.89	1.00000e-13
1181.42	8.10974e-7
1185.94	1.00000e-13
1190.47	1.00000e-13
1195.00	1.00000e-13
1199.53	1.00000e-13
1204.05	1.00000e-13
1208.58	1.00000e-13
1213.10	1.00000e-13
1217.63	1.00000e-13
1222.16	1.00000e-13
1226.68	1.00000e-13
1231.21	1.00000e-13
1235.73	1.00000e-13
1240.26	1.00000e-13
1244.79	1.00000e-13
1249.32	1.00000e-13
1253.84	1.00000e-13
1258.37	1.00000e-13
1262.89	1.00000e-13
1267.42	1.00000e-13
1271.95	1.00000e-13
1276.47	5.81584e-5
1281.00	3.96740e-3
1285.53	5.65400e-3
1290.05	3.97713e-3
1294.58	2.91140e-3
1299.11	2.31973e-3
1303.63	2.07100e-3
1308.16	1.55267e-3
1312.68	1.38549e-3
1313.98	1.47875e-3