Folder: data-visualizer/data/TGA/005d-L_M (part 7)

File: L2-corrected.txt
Filename	L2
Instrument name
Operator	Galyna
-correctrundate	2025-02-24
Sample name	L2
[step]
Step 1
Time	Temperature	Weight	Weight	Deriv. Weight
min	°C	mg	%	% / °C
0.02	27.06	1.563	100	-1.56652E-05
4.63	41.1	1.564	100.064	-2.06233E-05
9.29	63.72	1.559	99.7441	-3.51417E-05
13.96	86.66	1.56	99.8081	-7.73392E-05
18.63	102.97	1.546	98.9123	-0.000150576
23.29	100.76	1.54	98.5285	-0.000115606
27.96	108.18	1.538	98.4005	-5.61713E-05
32.63	130.51	1.533	98.0806	-6.12971E-05
37.29	153.86	1.527	97.6967	-7.98897E-05
41.96	177.36	1.518	97.1209	-9.67087E-05
46.63	200.71	1.507	96.4171	-0.000112185
51.29	224.05	1.495	95.6494	-0.000125031
55.96	247.43	1.48	94.6897	-0.00013344
60.63	270.8	1.466	93.794	-0.000150536
65.29	294.21	1.453	92.9623	-0.000199316
69.96	301.85	1.438	92.0026	-0.000312641
74.63	299.84	1.43	91.4907	0.0010115
79.29	299.89	1.426	91.2348	0.0014082
83.96	300.07	1.419	90.7869	-0.00558992
88.63	299.99	1.416	90.595	0.0197984
93.29	300	1.413	90.4031	0.0133076
97.96	300	1.413	90.4031	-0.0656361
102.63	300	1.406	89.9552	0.225487
107.29	300	1.405	89.8912	0.218809
111.96	300	1.403	89.7633	-0.0136552
116.63	300	1.4	89.5713	-0.366865
121.29	300	1.397	89.3794	-0.38967
125.96	300	1.392	89.0595	-0.372204
130.63	300	1.389	88.8676	-0.00966529
135.29	300	1.386	88.6756	0.062964
139.96	300	1.384	88.5477	0.0867413
144.63	300	1.382	88.4197	0.0862779
149.29	300	1.38	88.2917	0.0767486
153.96	300	1.378	88.1638	0.1614
158.63	300	1.375	87.9718	0.142808
163.29	300	1.373	87.8439	0.11058
167.96	300	1.371	87.7159	-0.187335
172.63	300	1.368	87.524	0.102792
177.29	300	1.367	87.46	-0.0712855
181.96	300	1.367	87.46	0.0236368
186.63	300	1.358	86.8842	0.0195622
191.29	300	1.358	86.8842	0.241782
195.96	300	1.354	86.6283	0.0840325
200.63	300	1.353	86.5643	0.173895
205.29	300	1.354	86.6283	0.139209
209.96	300	1.35	86.3724	-0.17621
214.63	300	1.347	86.1804	-0.196863
219.29	300	1.345	86.0525	-0.0109782
223.96	300	1.339	85.6686	0.245771
228.63	300	1.338	85.6046	0.0121419
233.29	300	1.338	85.6046	-0.0927357
237.96	300	1.334	85.3487	0.0133693
242.63	300	1.329	85.0288	0.23275
247.29	300	1.33	85.0928	0.0334851
251.96	300	1.326	84.8369	-0.167641
256.63	300	1.328	84.9648	0.0272946
261.29	300	1.323	84.6449	0.254517
265.96	300	1.32	84.453	0.236264
270.63	300	1.321	84.517	0.13192
275.29	300	1.316	84.1971	-0.188639
279.96	300	1.314	84.0691	-0.167767
284.63	300	1.311	83.8772	0.0584182
289.29	300	1.309	83.7492	0.113406
293.96	300	1.307	83.6212	-0.0580332
298.63	300	1.305	83.4933	0.118534
303.29	300	1.303	83.3653	0.182156
307.96	300	1.303	83.3653	0.0625842
312.63	300	1.301	83.2374	-0.0942228
317.29	300	1.298	83.0454	-0.180422
321.96	300	1.296	82.9175	-0.104946
326.63	300	1.296	82.9175	0.121816
331.29	300	1.292	82.6615	0.167006
335.96	300	1.29	82.5336	0.142224
340.63	300	1.29	82.5336	-0.0586135
345.29	300	1.289	82.4696	0.056747
349.96	300	1.285	82.2137	0.160988
354.63	300	1.285	82.2137	0.00330327
359.29	300	1.28	81.8938	-0.181375
363.96	300	1.279	81.8298	-0.00849674
368.63	300	1.274	81.5099	0.147348
373.29	300	1.277	81.7019	0.069945
377.96	300	1.275	81.5739	0.117379
382.63	300	1.273	81.4459	0.0979505
387.29	300	1.271	81.318	-0.12704
391.96	300	1.269	81.19	-0.0685851
396.63	300	1.268	81.126	0.197701
401.29	300	1.264	80.8701	0.297374
405.96	300	1.262	80.7422	-0.125344
410.63	300	1.26	80.6142	-0.285583
415.29	300	1.257	80.4223	-0.125131
419.96	300	1.256	80.3583	0.10533
424.63	300	1.253	80.1663	-0.0159099
429.29	300	1.248	79.8464	0.131391
433.96	300	1.247	79.7825	0.188652
438.63	300	1.245	79.6545	0.081896
443.29	300	1.241	79.3986	-0.194671
447.96	300	1.24	79.3346	0.0201625
452.63	300	1.238	79.2067	0.00916814
457.29	300	1.236	79.0787	0.0855126
461.96	300	1.234	78.9507	-0.0577338
466.63	300	1.231	78.7588	0.214785
471.29	300	1.229	78.6308	0.0905914
475.96	300	1.228	78.5669	-0.162711
480.63	300	1.225	78.3749	-0.0937861
485.29	300	1.223	78.247	0.0873623
489.96	300	1.221	78.119	0.03287
494.63	300	1.219	77.991	0.0801308
499.29	300	1.216	77.7991	-0.0745327
503.96	300	1.215	77.7351	0.00295097
508.63	300	1.214	77.6711	0.0182658
513.29	300	1.211	77.4792	0.182306
517.96	300	1.212	77.5432	0.175789
522.63	300	1.206	77.1593	-0.0435312
527.29	300	1.204	77.0313	6.46206E-05
531.96	300	1.204	77.0313	-0.0125203
536.63	300	1.202	76.9034	0.121022
541.29	300	1.202	76.9034	0.183623
545.96	300	1.197	76.5835	0.0869496
550.63	300	1.196	76.5195	0.0253978
555.29	300	1.196	76.5195	-0.0621642
559.96	300	1.194	76.3916	-0.125367
564.63	300	1.193	76.3276	0.0817117
569.29	300	1.186	75.8797	0.281381
573.96	300	1.191	76.1996	0.064721
578.63	300	1.187	75.9437	-0.115357
583.29	300	1.187	75.9437	0.0197565
587.96	300	1.184	75.7518	0.0920054
592.63	300	1.182	75.6238	-0.0404865
597.29	300	1.181	75.5598	-0.0518818
601.96	300	1.178	75.3679	0.210062
606.63	300	1.177	75.3039	0.224925
611.29	300	1.175	75.1759	-0.0574449
615.96	300	1.173	75.048	-0.0874984
620.63	300	1.171	74.92	0.11748
625.29	300	1.171	74.92	-0.0416224
629.96	300	1.168	74.7281	-0.035499
634.63	300	1.165	74.5361	0.129385
639.29	300	1.162	74.3442	0.153702
643.96	300	1.162	74.3442	-0.116187
648.63	300	1.161	74.2802	0.0556414
653.29	300	1.16	74.2163	0.101672
657.96	300	1.159	74.1523	-0.0203026
662.63	300	1.157	74.0243	0.151611
667.29	300	1.156	73.9603	0.0822814
671.96	300	1.156	73.9603	-0.0102592
676.63	300	1.151	73.6404	-0.104998
681.29	300	1.154	73.8324	0.0175003
685.96	300	1.147	73.3845	0.0209041
690.63	300	1.143	73.1286	0.0279267
695.29	300	1.145	73.2566	0.0286377
699.96	300	1.144	73.1926	-0.0244514
704.63	300	1.141	73.0006	0.0612346
709.29	300	1.14	72.9367	0.0996431
713.96	300	1.137	72.7447	0.130087
718.63	300	1.137	72.7447	0.103368
723.29	300	1.135	72.6168	-0.0254128
727.96	300	1.133	72.4888	-0.0554442
732.63	300	1.131	72.3608	-0.0574136
737.29	300	1.128	72.1689	0.214081
741.96	300	1.127	72.1049	-0.0438043
746.63	300	1.126	72.0409	-0.052816
751.29	300	1.124	71.913	0.129507
755.96	300	1.124	71.913	0.132762
760.63	300	1.12	71.6571	0.0242486
765.29	300	1.12	71.6571	0.180505
769.96	300	1.116	71.4012	0.122255
774.63	300	1.114	71.2732	-0.118681
779.29	300	1.108	70.8893	-0.117007
783.96	300	1.108	70.8893	0.0325586
788.63	300	1.112	71.1452	-0.00847122
793.29	300	1.103	70.5694	-0.0811375
797.96	300	1.104	70.6334	0.25492
802.63	300	1.099	70.3135	0.223264
807.29	300	1.1	70.3775	-0.0604104
811.96	300	1.098	70.2495	-0.100009
816.63	300	1.097	70.1855	0.182166
821.29	300	1.095	70.0576	0.0647624
825.96	300	1.093	69.9296	-0.128933
830.63	300	1.092	69.8656	0.0475817
835.29	300	1.09	69.7377	0.0333166
839.96	300	1.088	69.6097	-0.164725
844.63	300	1.087	69.5457	-0.228495
849.29	300	1.085	69.4178	0.195149
853.96	300	1.083	69.2898	-0.0162042
858.63	300	1.08	69.0979	-0.0170416
863.29	300	1.08	69.0979	0.0535207
867.96	300	1.079	69.0339	0.125654
872.63	300	1.077	68.906	0.0222353
877.29	300	1.079	69.0339	-0.132259
881.96	300	1.074	68.714	0.105904
886.63	300	1.076	68.842	-0.0335942
891.29	300	1.074	68.714	0.0130499
895.96	300	1.072	68.5861	0.0255556
900.63	300	1.07	68.4581	0.0958811
905.29	300	1.07	68.4581	0.0309172
909.96	300	1.07	68.4581	0.0340401
914.63	300	1.072	68.5861	-0.0515624
919.29	300	1.066	68.2022	0.0462878
923.96	300	1.066	68.2022	-0.0627223
928.63	300	1.064	68.0742	0.0888479
933.29	300	1.064	68.0742	0.0474315
937.96	300	1.061	67.8823	0.0195534
942.63	300	1.063	68.0102	0.105748
947.29	300	1.063	68.0102	0.138828
951.96	300	1.058	67.6903	0.0204409
956.63	300	1.06	67.8183	-0.0897464
961.29	300	1.057	67.6264	0.137157
965.96	300	1.059	67.7543	0.172398
970.63	300	1.056	67.5624	0.00289874
975.29	300	1.056	67.5624	0.0213999
979.96	300	1.052	67.3065	0.110965
984.63	300	1.052	67.3065	0.092573
989.29	300	1.053	67.3704	-0.0595379
993.96	300	1.047	66.9866	-0.181932
998.63	300	1.045	66.8586	-0.219468
1003.29	300	1.046	66.9226	-0.140262
1007.96	300	1.04	66.5387	0.120772
1012.63	300	1.04	66.5387	0.129027
1017.29	300	1.037	66.3468	0.0330354
1021.96	300	1.038	66.4107	0.0817347
1026.63	300	1.036	66.2828	0.0668431
1031.29	300	1.035	66.2188	0.0392843
1035.96	300	1.029	65.8349	0.00303994
1040.63	300	1.029	65.8349	-0.205592
1045.29	300	1.026	65.643	-0.21586
1049.96	300	1.026	65.643	-0.017985
1054.63	300	1.023	65.4511	0.178962
1059.29	300	1.023	65.4511	0.0615711
1063.96	300	1.021	65.3231	0.107872
1068.63	300	1.021	65.3231	0.0954384
1073.29	300	1.018	65.1312	0.136933
1077.96	300	1.016	65.0032	0.0525517
1082.63	300	1.018	65.1312	-0.0884156
1087.29	300	1.012	64.7473	-0.17948
1091.96	300	1.011	64.6833	-0.134576
1096.63	300	1.007	64.4274	0.00566917
1101.29	300	1.007	64.4274	0.182726
1105.96	300	1.004	64.2354	0.135827
1110.63	300	1.005	64.2994	0.00363326
1115.29	300	1.005	64.2994	-0.124676
1119.96	300	1.001	64.0435	0.0524049
1124.63	300	1.001	64.0435	0.136908
1129.29	300	0.998	63.8516	-0.0797446
1133.96	300	0.999	63.9155	-0.208883
1138.63	300	0.994	63.5956	0.107303
1143.29	300	0.993	63.5317	0.164263
1147.96	300	0.99	63.3397	0.0541115
1152.63	300	0.99	63.3397	0.0959516
1157.29	300	0.988	63.2118	0.153839
1161.96	300	0.99	63.3397	0.102089
1166.63	300	0.986	63.0838	-0.0841834
1171.29	300	0.985	63.0198	-0.129147
1175.96	300	0.983	62.8919	-0.176022
1180.63	300	0.977	62.508	-0.0194615
1185.29	300	0.977	62.508	0.0486077
1189.96	300	0.976	62.444	0.040636
1194.63	300	0.977	62.508	0.050056
1199.29	300	0.973	62.2521	0.1053
1203.96	300	0.977	62.508	-0.0124773
1208.63	300	0.972	62.1881	-0.0759012
1213.29	300	0.97	62.0601	-0.089694
1217.96	300	0.968	61.9322	-0.141713
1222.63	300	0.964	61.6763	0.0338901
1227.29	300	0.96	61.4203	0.247489
1231.96	300	0.962	61.5483	0.062921
1236.63	300	0.962	61.5483	-0.0450267
1241.29	300	0.959	61.3564	0.0682614
1245.96	300	0.96	61.4203	0.100259
1250.63	300	0.959	61.3564	-0.0335736
1255.29	300	0.956	61.1644	-0.221725
1259.96	300	0.952	60.9085	-4.56046E-05
1264.63	300.01	0.95	60.7806	-0.000099281
1269.29	333.92	0.946	60.5246	-0.000743535
1273.96	380.57	0.86	55.0224	-0.00293247
1278.63	427.68	-0.227	-14.5234	-0.00375102
1283.29	474.46	-1.007	-64.4274	-0.00227619
1287.96	521.29	-1.009	-64.5553	-0.000158394
1292.63	568.07	-1.011	-64.6833	3.40329E-06
1297.29	614.83	-1.008	-64.4914	9.79078E-06
1301.96	661.59	-1.006	-64.3634	1.24771E-05
1306.63	708.33	-1.004	-64.2354	0.000020489
1311.29	755.06	-0.993	-63.5317	2.51494E-05
1314.46	786.76	-0.995	-63.6596	3.40717E-05

File: L2.txt
Filename	L2
Instrument name
Operator	Galyna
-correctrundate	2025-02-24
Sample name	L2
[step]
Step 1
Time	Temperature	Weight	Weight	Deriv. Weight
min	°C	mg	%	% / °C
0.02	27.06	433.173	100.000	-1.56652e-5
5.21	44.13	433.172	100.000	-2.25170e-5
10.46	69.22	433.161	99.998	-4.45984e-5
15.71	95.58	433.163	99.998	-9.78812e-5
20.96	102.26	433.153	99.996	-1.87766e-4
26.21	101.35	433.150	99.995	-5.84809e-5
31.46	124.94	433.146	99.994	-5.67129e-5
36.71	150.90	433.137	99.992	-7.78370e-5
41.96	177.36	433.128	99.990	-9.67087e-5
47.21	203.62	433.115	99.987	-1.14275e-4
52.46	229.89	433.101	99.984	-1.27889e-4
57.71	256.20	433.087	99.981	-1.36665e-4
62.96	282.49	433.071	99.977	-1.69692e-4
68.21	301.42	433.052	99.973	-2.53010e-4
73.46	300.22	433.041	99.970	-3.44768e-4
78.71	299.83	433.037	99.969	1.46381e-3
83.96	300.07	433.029	99.967	-5.58992e-3
89.21	299.99	433.025	99.966	0.0214610
94.46	300.00	433.022	99.966	-0.0326669
99.71	300.00	433.019	99.965	0.0382810
104.96	300.00	433.017	99.964	0.246892
110.21	300.00	433.014	99.964	0.169189
115.46	300.00	433.011	99.963	-0.399430
120.71	300.00	433.007	99.962	-0.371435
125.96	300.00	433.002	99.961	-0.372204
131.21	300.00	432.996	99.960	-0.0227499
136.46	300.00	432.994	99.959	0.0393983
141.71	300.00	432.994	99.959	0.0309013
146.96	300.00	432.991	99.958	0.234529
152.21	300.00	432.993	99.959	0.0402814
157.46	300.00	432.987	99.957	0.157099
162.71	300.00	432.985	99.957	0.143568
167.96	300.00	432.981	99.956	-0.187335
173.21	300.00	432.980	99.956	0.113705
178.46	300.00	432.976	99.955	-1.30713e-3
183.71	300.00	432.973	99.954	-0.111204
188.96	300.00	432.969	99.953	0.210448
194.21	300.00	432.966	99.953	9.68526e-3
199.46	300.00	432.963	99.952	0.174366
204.71	300.00	432.963	99.952	0.154333
209.96	300.00	432.960	99.951	-0.176210
215.21	300.00	432.957	99.951	-0.168568
220.46	300.00	432.954	99.950	0.0250629
225.71	300.00	432.948	99.949	0.217319
230.96	300.00	432.946	99.948	-0.0602383
236.21	300.00	432.945	99.948	3.02100e-3
241.46	300.00	432.942	99.947	0.223585
246.71	300.00	432.941	99.947	0.0745005
251.96	300.00	432.936	99.946	-0.167641
257.21	300.00	432.934	99.945	0.0723864
262.46	300.00	432.934	99.945	0.241269
267.71	300.00	432.929	99.944	0.255107
272.96	300.00	432.929	99.944	-0.111563
278.21	300.00	432.928	99.944	-0.213158
283.46	300.00	432.923	99.943	-1.51295e-3
288.71	300.00	432.918	99.942	0.121469
293.96	300.00	432.917	99.941	-0.0580332
299.21	300.00	432.915	99.941	0.117699
304.46	300.00	432.912	99.940	0.201820
309.71	300.00	432.912	99.940	-0.0174618
314.96	300.00	432.907	99.939	-0.0876655
320.21	300.00	432.908	99.939	-0.177774
325.46	300.00	432.905	99.939	0.0916376
330.71	300.00	432.900	99.938	0.147068
335.96	300.00	432.900	99.937	0.142224
341.21	300.00	432.898	99.937	-0.0232328
346.46	300.00	432.895	99.936	0.0465871
351.71	300.00	432.894	99.936	0.162102
356.96	300.00	432.894	99.936	-0.161736
362.21	300.00	432.887	99.935	-0.0710585
367.46	300.00	432.883	99.934	0.0983274
372.71	300.00	432.885	99.934	0.0379023
377.96	300.00	432.885	99.934	0.117379
383.21	300.00	432.881	99.933	0.0977568
388.46	300.00	432.884	99.934	-0.158968
393.71	300.00	432.875	99.932	0.116008
398.96	300.00	432.877	99.932	0.266366
404.21	300.00	432.876	99.932	0.0435294
409.46	300.00	432.872	99.931	-0.289646
414.71	300.00	432.869	99.930	-0.179521
419.96	300.00	432.866	99.930	0.105330
425.21	300.00	432.865	99.929	0.0227180
430.46	300.00	432.859	99.928	0.144630
435.71	300.00	432.857	99.928	0.111706
440.96	300.00	432.853	99.927	-0.186954
446.21	300.00	432.849	99.926	-0.0188224
451.46	300.00	432.847	99.925	5.12752e-3
456.71	300.00	432.846	99.925	0.0929539
461.96	300.00	432.844	99.924	-0.0577338
467.21	300.00	432.843	99.924	0.199307
472.46	300.00	432.839	99.923	0.0264368
477.71	300.00	432.836	99.923	-0.147859
482.96	300.00	432.834	99.922	-0.0333373
488.21	300.00	432.835	99.922	0.0576557
493.46	300.00	432.831	99.921	-0.0182367
498.71	300.00	432.827	99.921	-0.0470114
503.96	300.00	432.825	99.920	2.95097e-3
509.21	300.00	432.823	99.920	0.0379414
514.46	300.00	432.820	99.919	0.0869008
519.71	300.00	432.823	99.920	0.0107276
524.96	300.00	432.817	99.918	-0.0167389
530.21	300.00	432.815	99.918	0.0211305
535.46	300.00	432.815	99.918	0.125079
540.71	300.00	432.812	99.917	0.179304
545.96	300.00	432.807	99.916	0.0869496
551.21	300.00	432.809	99.917	-0.0155460
556.46	300.00	432.805	99.916	-0.0871132
561.71	300.00	432.804	99.915	-0.0576741
566.96	300.00	432.803	99.915	0.254190
572.21	300.00	432.800	99.914	0.112058
577.46	300.00	432.799	99.914	-0.145718
582.71	300.00	432.796	99.913	3.29456e-3
587.96	300.00	432.794	99.913	0.0920054
593.21	300.00	432.796	99.913	-0.0792422
598.46	300.00	432.786	99.911	-0.0187495
603.71	300.00	432.788	99.912	0.265073
608.96	300.00	432.787	99.911	0.0998818
614.21	300.00	432.783	99.910	-0.0621212
619.46	300.00	432.780	99.910	0.0872257
624.71	300.00	432.780	99.910	-0.0129315
629.96	300.00	432.778	99.909	-0.0354990
635.21	300.00	432.776	99.909	0.148171
640.46	300.00	432.773	99.908	0.0982268
645.71	300.00	432.772	99.908	-0.0737439
650.96	300.00	432.770	99.907	0.164531
656.21	300.00	432.768	99.907	-0.0333816
661.46	300.00	432.768	99.907	0.107090
666.71	300.00	432.761	99.905	0.0544923
671.96	300.00	432.766	99.906	-0.0102592
677.21	300.00	432.761	99.905	-0.109975
682.46	300.00	432.759	99.905	-0.0495650
687.71	300.00	432.758	99.905	0.0968615
692.96	300.00	432.752	99.903	-3.52975e-3
698.21	300.00	432.754	99.904	0.111327
703.46	300.00	432.752	99.903	0.0256628
708.71	300.00	432.749	99.903	0.0516183
713.96	300.00	432.747	99.902	0.130087
719.21	300.00	432.745	99.902	0.157361
724.46	300.00	432.744	99.901	-0.0929745
729.71	300.00	432.742	99.901	-0.0841932
734.96	300.00	432.738	99.900	0.125893
740.21	300.00	432.738	99.900	0.0270578
745.46	300.00	432.737	99.900	-0.0240292
750.71	300.00	432.733	99.899	0.0985292
755.96	300.00	432.734	99.899	0.132762
761.21	300.00	432.728	99.898	0.0551191
766.46	300.00	432.728	99.898	0.219398
771.71	300.00	432.725	99.897	0.0303647
776.96	300.00	432.723	99.897	-0.189895
782.21	300.00	432.721	99.896	-0.0769611
787.46	300.00	432.721	99.896	0.0136079
792.71	300.00	432.717	99.895	-0.0667410
797.96	300.00	432.714	99.895	0.254920
803.21	300.00	432.714	99.895	0.203933
808.46	300.00	432.709	99.893	-0.127884
813.71	300.00	432.710	99.894	0.0810721
818.96	300.00	432.701	99.891	0.247545
824.21	300.00	432.704	99.892	-0.0936260
829.46	300.00	432.701	99.892	-0.0293554
834.71	300.00	432.699	99.891	0.0279941
839.96	300.00	432.698	99.891	-0.164725
845.21	300.00	432.696	99.890	-0.191304
850.46	300.00	432.693	99.890	0.159341
855.71	300.00	432.692	99.889	-0.0323081
860.96	300.00	432.691	99.889	0.0163661
866.21	300.00	432.691	99.889	0.141249
871.46	300.00	432.688	99.889	0.0129679
876.71	300.00	432.686	99.888	-0.126533
881.96	300.00	432.684	99.888	0.105904
887.21	300.00	432.683	99.887	-0.0371317
892.46	300.00	432.684	99.888	0.0202474
897.71	300.00	432.683	99.887	0.0665571
902.96	300.00	432.682	99.887	0.124773
908.21	300.00	432.681	99.887	0.0428711
913.46	300.00	432.681	99.887	-0.0461805
918.71	300.00	432.680	99.887	0.0612643
923.96	300.00	432.676	99.886	-0.0627223
929.21	300.00	432.676	99.886	0.0868007
934.46	300.00	432.674	99.885	0.0399987
939.71	300.00	432.671	99.885	-0.0272672
944.96	300.00	432.669	99.884	0.142381
950.21	300.00	432.668	99.884	0.0669145
955.46	300.00	432.671	99.885	-0.0723814
960.71	300.00	432.669	99.884	0.0704424
965.96	300.00	432.669	99.884	0.172398
971.21	300.00	432.665	99.883	-0.0420875
976.46	300.00	432.662	99.882	0.0663068
981.71	300.00	432.661	99.882	0.109763
986.96	300.00	432.660	99.882	0.0591889
992.21	300.00	432.656	99.881	-0.147783
997.46	300.00	432.656	99.881	-0.224352
1002.71	300.00	432.653	99.880	-0.182106
1007.96	300.00	432.650	99.880	0.120772
1013.21	300.00	432.647	99.879	0.0795271
1018.46	300.00	432.647	99.879	0.0438265
1023.71	300.00	432.646	99.879	0.0495774
1028.96	300.00	432.644	99.878	0.0615740
1034.21	300.00	432.642	99.878	0.0897293
1039.46	300.00	432.638	99.877	-0.150615
1044.71	300.00	432.639	99.877	-0.223820
1049.96	300.00	432.636	99.876	-0.0179850
1055.21	300.00	432.635	99.876	0.147616
1060.46	300.00	432.629	99.875	0.0650804
1065.71	300.00	432.629	99.875	0.107182
1070.96	300.00	432.630	99.875	0.120057
1076.21	300.00	432.626	99.874	0.0411184
1081.46	300.00	432.625	99.874	-0.0843233
1086.71	300.00	432.619	99.873	-0.179604
1091.96	300.00	432.621	99.873	-0.134576
1097.21	300.00	432.618	99.872	0.0233724
1102.46	300.00	432.618	99.872	0.144350
1107.71	300.00	432.615	99.872	0.110329
1112.96	300.00	432.616	99.872	-0.105407
1118.21	300.00	432.614	99.871	-0.0266951
1123.46	300.00	432.612	99.871	0.156523
1128.71	300.00	432.609	99.870	-0.0309845
1133.96	300.00	432.609	99.870	-0.208883
1139.21	300.00	432.603	99.869	0.154363
1144.46	300.00	432.604	99.869	0.118242
1149.71	300.00	432.601	99.868	0.0654623
1154.96	300.00	432.599	99.868	0.125449
1160.21	300.00	432.598	99.868	0.154726
1165.46	300.00	432.598	99.868	-0.0622728
1170.71	300.00	432.595	99.867	-0.0588229
1175.96	300.00	432.593	99.867	-0.176022
1181.21	300.00	432.591	99.866	1.92983e-3
1186.46	300.00	432.593	99.867	0.0464068
1191.71	300.00	432.585	99.865	0.0343198
1196.96	300.00	432.581	99.864	0.0860286
1202.21	300.00	432.583	99.864	0.0330891
1207.46	300.00	432.582	99.864	-0.0704806
1212.71	300.00	432.580	99.864	-0.0813560
1217.96	300.00	432.578	99.863	-0.141713
1223.21	300.00	432.575	99.862	0.157108
1228.46	300.00	432.573	99.862	0.206391
1233.71	300.00	432.570	99.861	0.0136904
1238.96	300.00	432.573	99.862	0.0385433
1244.21	300.00	432.567	99.860	0.0997265
1249.46	300.00	432.569	99.861	0.0141685
1254.71	300.00	432.564	99.860	-0.220057
1259.96	300.00	432.562	99.860	-4.56046e-5
1265.21	300.71	432.560	99.859	-1.25006e-4
1270.46	345.17	432.554	99.858	-1.21332e-3
1275.71	398.35	432.300	99.799	-3.50948e-3
1280.96	451.07	430.689	99.427	-3.28386e-3
1286.21	503.74	430.598	99.406	-7.11620e-4
1291.46	556.37	430.606	99.408	2.25824e-6
1296.71	608.99	430.602	99.407	8.61099e-6
1301.96	661.59	430.604	99.407	1.24771e-5
1307.21	714.17	430.610	99.409	2.11253e-5
1312.46	766.74	430.624	99.412	2.84959e-5
1314.46	786.76	430.615	99.410	3.40717e-5

File: L2_000001 -temp_104 AMU_XIC
Time	Ion Current
min	mA
0.00	2.32518e-4
4.53	2.15835e-4
9.05	2.31359e-4
13.58	2.00079e-4
18.11	1.32421e-4
22.64	1.05311e-4
27.16	8.00548e-5
31.69	5.81584e-5
36.21	4.83109e-5
40.74	6.12865e-5
45.27	5.08597e-5
49.79	1.00000e-13
54.32	1.21646e-5
58.84	1.00000e-13
63.37	1.11219e-5
67.90	1.00000e-13
72.42	6.83536e-6
76.95	6.95121e-7
81.48	1.00000e-13
86.00	8.57316e-6
90.53	3.47560e-6
95.06	1.00000e-13
99.58	1.00000e-13
104.11	5.56097e-6
108.64	1.00000e-13
113.17	1.00000e-13
117.69	8.45730e-6
122.22	1.00000e-13
126.74	1.00000e-13
131.27	9.49998e-6
135.80	1.00000e-13
140.32	1.00000e-13
144.85	9.15242e-6
149.38	1.00000e-13
153.90	1.00000e-13
158.43	1.63353e-5
162.96	1.00000e-13
167.48	1.00000e-13
172.01	1.00000e-13
176.54	1.00000e-13
181.06	1.00000e-13
185.59	1.00000e-13
190.11	1.00000e-13
194.64	1.00000e-13
199.17	1.00000e-13
203.69	1.00000e-13
208.22	1.04268e-6
212.75	1.00000e-13
217.27	1.00000e-13
221.80	1.00000e-13
226.32	1.00000e-13
230.85	1.00000e-13
235.38	1.00000e-13
239.91	3.12804e-6
244.43	1.00000e-13
248.96	1.00000e-13
253.49	1.00000e-13
258.01	1.00000e-13
262.54	1.00000e-13
267.06	1.00000e-13
271.59	1.00000e-13
276.12	1.00000e-13
280.65	1.00000e-13
285.17	1.00000e-13
289.70	1.00000e-13
294.22	1.00000e-13
298.75	1.00000e-13
303.28	1.00000e-13
307.80	4.63414e-6
312.33	1.00000e-13
316.85	1.00000e-13
321.38	1.00000e-13
325.91	1.00000e-13
330.43	1.00000e-13
334.96	1.50610e-6
339.49	1.00000e-13
344.01	1.00000e-13
348.54	1.00000e-13
353.07	1.00000e-13
357.59	1.00000e-13
362.12	1.00000e-13
366.65	1.00000e-13
371.17	1.00000e-13
375.70	1.00000e-13
380.23	1.00000e-13
384.75	1.00000e-13
389.28	1.00000e-13
393.81	1.00000e-13
398.33	1.00000e-13
402.86	1.00000e-13
407.39	1.00000e-13
411.91	1.00000e-13
416.44	1.00000e-13
420.96	1.85366e-6
425.49	1.00000e-13
430.02	1.00000e-13
434.54	1.00000e-13
439.07	1.00000e-13
443.60	1.00000e-13
448.13	1.00000e-13
452.65	1.00000e-13
457.18	1.00000e-13
461.70	1.00000e-13
466.23	1.00000e-13
470.76	2.66463e-6
475.28	1.00000e-13
479.81	1.00000e-13
484.33	1.00000e-13
488.86	1.76097e-5
493.39	1.00000e-13
497.91	1.00000e-13
502.44	1.00000e-13
506.97	1.00000e-13
511.49	1.00000e-13
516.02	1.00000e-13
520.55	1.50610e-5
525.07	1.00000e-13
529.60	1.00000e-13
534.13	1.00000e-13
538.65	1.00000e-13
543.18	1.00000e-13
547.71	6.48779e-6
552.23	1.00000e-13
556.76	1.00000e-13
561.29	1.00000e-13
565.81	1.00000e-13
570.34	1.00000e-13
574.86	2.31707e-7
579.39	1.00000e-13
583.92	1.00000e-13
588.44	1.00000e-13
592.97	1.00000e-13
597.50	1.00000e-13
602.02	1.00000e-13
606.55	1.00000e-13
611.08	1.00000e-13
615.60	1.00000e-13
620.13	1.00000e-13
624.66	1.00000e-13
629.18	1.00000e-13
633.71	1.00000e-13
638.24	1.00000e-13
642.76	1.00000e-13
647.29	1.00000e-13
651.82	1.00000e-13
656.34	1.00000e-13
660.87	1.00000e-13
665.39	1.00000e-13
669.92	1.00000e-13
674.45	1.00000e-13
678.98	1.00000e-13
683.50	1.00000e-13
688.03	1.00000e-13
692.56	1.00000e-13
697.08	1.00000e-13
701.61	1.00000e-13
706.14	1.00000e-13
710.66	1.00000e-13
715.19	1.00000e-13
719.71	1.00000e-13
724.24	2.43292e-6
728.77	1.00000e-13
733.29	1.00000e-13
737.82	1.00000e-13
742.35	1.00000e-13
746.87	1.00000e-13
751.40	1.00000e-13
755.93	1.00000e-13
760.45	1.00000e-13
764.98	1.00000e-13
769.50	1.00000e-13
774.03	1.00000e-13
778.56	1.00000e-13
783.08	1.05427e-5
787.61	1.00000e-13
792.14	1.00000e-13
796.66	1.00000e-13
801.19	1.00000e-13
805.72	1.00000e-13
810.24	1.00000e-13
814.77	1.00000e-13
819.30	1.00000e-13
823.82	1.39024e-5
828.35	1.00000e-13
832.88	1.00000e-13
837.40	1.00000e-13
841.93	1.00000e-13
846.46	1.00000e-13
850.98	1.00000e-13
855.51	1.00000e-13
860.03	1.00000e-13
864.56	1.00000e-13
869.09	1.00000e-13
873.62	1.00000e-13
878.14	1.00000e-13
882.67	1.00000e-13
887.19	1.00000e-13
891.72	1.00000e-13
896.25	1.00000e-13
900.77	4.86585e-6
905.30	1.00000e-13
909.83	1.00000e-13
914.35	1.49451e-5
918.88	1.00000e-13
923.40	1.00000e-13
927.93	1.00000e-13
932.46	1.00000e-13
936.98	1.00000e-13
941.51	1.00000e-13
946.04	1.00000e-13
950.56	1.00000e-13
955.09	1.00000e-13
959.62	1.27439e-5
964.14	1.00000e-13
968.67	1.00000e-13
973.20	1.00000e-13
977.72	1.00000e-13
982.25	1.00000e-13
986.78	1.00000e-13
991.30	1.00000e-13
995.83	1.00000e-13
1000.36	1.00000e-13
1004.88	1.00000e-13
1009.41	1.00000e-13
1013.93	2.31707e-7
1018.46	1.00000e-13
1022.99	1.00000e-13
1027.51	1.00000e-13
1032.04	1.00000e-13
1036.57	1.00000e-13
1041.09	1.00000e-13
1045.62	1.00000e-13
1050.15	1.00000e-13
1054.67	2.09695e-5
1059.20	1.00000e-13
1063.72	1.00000e-13
1068.25	1.00000e-13
1072.78	1.00000e-13
1077.31	1.00000e-13
1081.83	1.00000e-13
1086.36	1.00000e-13
1090.89	1.00000e-13
1095.41	1.00000e-13
1099.94	1.00000e-13
1104.46	1.00000e-13
1108.99	1.00000e-13
1113.52	7.87804e-6
1118.05	1.00000e-13
1122.57	1.00000e-13
1127.10	1.00000e-13
1131.62	1.00000e-13
1136.15	1.00000e-13
1140.67	1.00000e-13
1145.20	1.00000e-13
1149.73	1.00000e-13
1154.25	1.00000e-13
1158.78	1.00000e-13
1163.31	1.39024e-5
1167.84	1.00000e-13
1172.36	1.00000e-13
1176.89	1.00000e-13
1181.41	1.00000e-13
1185.94	1.00000e-13
1190.47	4.74999e-6
1194.99	1.00000e-13
1199.52	1.00000e-13
1204.05	1.00000e-13
1208.57	1.00000e-13
1213.10	1.00000e-13
1217.63	1.00000e-13
1222.15	1.00000e-13
1226.68	1.00000e-13
1231.21	1.00000e-13
1235.73	1.00000e-13
1240.26	1.00000e-13
1244.78	1.00000e-13
1249.31	1.00000e-13
1253.84	1.00000e-13
1258.36	1.00000e-13
1262.89	1.00000e-13
1267.42	1.00000e-13
1271.94	1.00000e-13
1276.47	1.04384e-4
1281.00	4.22738e-3
1285.52	4.97046e-3
1290.05	2.61771e-3
1294.58	1.61813e-3
1299.10	7.33700e-4
1303.63	4.16725e-4
1308.16	2.94500e-4
1312.68	1.28134e-4
1314.14	1.35433e-4