Folder: data-visualizer/data/TGA/005d-B

File: 005dB1-rGPC MS_104 AMU_XIC
Time	Ion Current
min	mA
0.00	1.00000e-13
4.53	1.00000e-13
9.05	1.00000e-13
13.58	1.00000e-13
18.11	1.00000e-13
22.63	1.00000e-13
27.16	1.00000e-13
31.68	1.00000e-13
36.21	1.00000e-13
40.74	1.00000e-13
45.27	1.00000e-13
49.79	1.00000e-13
54.32	1.00000e-13
58.84	1.00000e-13
63.37	1.00000e-13
67.90	1.00000e-13
72.43	1.00000e-13
76.95	1.00000e-13
81.48	6.14023e-6
86.00	1.00000e-13
90.53	1.00000e-13
95.06	2.66463e-6
99.58	6.02438e-6
104.11	1.49451e-5
108.64	1.00000e-13
113.16	1.00000e-13
117.69	1.00000e-13
122.22	1.00000e-13
126.75	1.00000e-13
131.27	6.95121e-7
135.80	1.00000e-13
140.32	1.00000e-13
144.85	4.86585e-6
149.38	1.00000e-13
153.90	1.00000e-13
158.43	1.00000e-13
162.96	8.10974e-6
167.48	1.00000e-13
172.01	1.00000e-13
176.54	1.00000e-13
181.06	1.00000e-13
185.59	1.00000e-13
190.11	1.00000e-13
194.64	1.00000e-13
199.17	1.00000e-13
203.70	1.00000e-13
208.22	1.00000e-13
212.75	1.00000e-13
217.28	1.00000e-13
221.80	1.00000e-13
226.33	1.00000e-13
230.86	1.00000e-13
235.38	1.00000e-13
239.91	1.00000e-13
244.44	1.00000e-13
248.96	1.00000e-13
253.49	1.00000e-13
258.01	7.64633e-6
262.54	1.00000e-13
267.07	1.00000e-13
271.59	1.00000e-13
276.12	1.00000e-13
280.65	1.00000e-13
285.17	1.00000e-13
289.70	1.00000e-13
294.23	1.00000e-13
298.75	1.00000e-13
303.28	1.00000e-13
307.81	1.00000e-13
312.34	1.00000e-13
316.86	1.00000e-13
321.39	1.00000e-13
325.91	1.00000e-13
330.44	1.00000e-13
334.96	1.00000e-13
339.49	1.00000e-13
344.02	1.00000e-13
348.55	1.00000e-13
353.07	1.00000e-13
357.60	1.00000e-13
362.13	1.00000e-13
366.65	1.00000e-13
371.18	1.00000e-13
375.71	1.00000e-13
380.23	1.22805e-5
384.76	1.00000e-13
389.28	1.00000e-13
393.81	1.00000e-13
398.34	1.39024e-5
402.86	1.00000e-13
407.39	1.00000e-13
411.92	1.00000e-13
416.45	1.00000e-13
420.97	1.00000e-13
425.50	9.26828e-7
430.03	1.00000e-13
434.55	1.00000e-13
439.08	1.00000e-13
443.60	1.00000e-13
448.13	1.00000e-13
452.66	1.00000e-13
457.18	1.00000e-13
461.71	1.00000e-13
466.24	1.00000e-13
470.76	1.00000e-13
475.29	1.00000e-13
479.81	1.43658e-5
484.34	1.00000e-13
488.87	1.00000e-13
493.39	9.84755e-6
497.92	1.00000e-13
502.45	1.00000e-13
506.97	1.00000e-13
511.50	1.00000e-13
516.03	1.00000e-13
520.55	1.00000e-13
525.08	1.00000e-13
529.61	1.04268e-6
534.14	1.00000e-13
538.67	1.00000e-13
543.19	1.00000e-13
547.71	1.00000e-13
552.24	1.00000e-13
556.77	1.00000e-13
561.29	1.00000e-13
565.82	1.00000e-13
570.35	1.00000e-13
574.87	1.00000e-13
579.40	1.00000e-13
583.92	1.00000e-13
588.45	1.00000e-13
592.98	1.00000e-13
597.51	1.00000e-13
602.03	1.00000e-13
606.56	1.00000e-13
611.08	1.00000e-13
615.61	1.00000e-13
620.14	1.15853e-7
624.66	1.00000e-13
629.19	1.40183e-5
633.72	1.00000e-13
638.25	1.00000e-13
642.78	1.00000e-13
647.30	1.00000e-13
651.82	1.00000e-13
656.35	1.00000e-13
660.88	1.00000e-13
665.40	1.00000e-13
669.93	1.00000e-13
674.46	1.00000e-13
678.98	1.00000e-13
683.51	1.00000e-13
688.04	1.49451e-5
692.56	1.00000e-13
697.09	1.00000e-13
701.62	1.00000e-13
706.14	1.00000e-13
710.67	1.00000e-13
715.20	1.00000e-13
719.72	1.00000e-13
724.25	1.00000e-13
728.77	1.00000e-13
733.30	1.00000e-13
737.83	2.89634e-6
742.36	1.00000e-13
746.89	1.00000e-13
751.41	9.03657e-6
755.94	1.00000e-13
760.46	1.00000e-13
764.99	1.00000e-13
769.51	1.00000e-13
774.04	1.00000e-13
778.57	1.00000e-13
783.09	1.00000e-13
787.62	1.00000e-13
792.15	1.00000e-13
796.67	1.00000e-13
801.20	1.00000e-13
805.73	2.47926e-5
810.25	1.00000e-13
814.78	1.22805e-5
819.31	1.00000e-13
823.83	1.00000e-13
828.36	1.00000e-13
832.88	1.00000e-13
837.41	1.00000e-13
841.94	1.00000e-13
846.47	2.31707e-7
851.00	1.00000e-13
855.52	1.00000e-13
860.05	1.00000e-13
864.57	1.00000e-13
869.10	1.00000e-13
873.62	1.00000e-13
878.15	1.00000e-13
882.68	1.00000e-13
887.20	1.00000e-13
891.73	1.00000e-13
896.26	1.00000e-13
900.78	1.00000e-13
905.31	1.11219e-5
909.84	1.00000e-13
914.36	1.00000e-13
918.89	1.00000e-13
923.42	1.00000e-13
927.94	1.00000e-13
932.47	1.00000e-13
937.00	1.00000e-13
941.52	1.00000e-13
946.05	1.00000e-13
950.58	1.00000e-13
955.10	1.00000e-13
959.63	1.00000e-13
964.16	1.00000e-13
968.69	1.00000e-13
973.21	1.00000e-13
977.73	1.00000e-13
982.26	1.00000e-13
986.79	1.00000e-13
991.31	1.00000e-13
995.84	1.00000e-13
1000.37	1.15853e-7
1004.89	1.00000e-13
1009.42	1.00000e-13
1013.95	1.00000e-13
1018.47	1.00000e-13
1023.00	1.00000e-13
1027.53	1.00000e-13
1032.05	1.00000e-13
1036.58	1.00000e-13
1041.11	1.00000e-13
1045.63	1.00000e-13
1050.16	1.00000e-13
1054.69	1.00000e-13
1059.21	3.93902e-6
1063.74	1.00000e-13
1068.27	1.00000e-13
1072.80	1.00000e-13
1077.33	1.00000e-13
1081.84	1.00000e-13
1086.37	1.00000e-13
1090.90	1.00000e-13
1095.42	1.00000e-13
1099.95	1.00000e-13
1104.48	1.00000e-13
1109.00	1.00000e-13
1113.53	1.00000e-13
1118.06	1.00000e-13
1122.59	1.00000e-13
1127.11	1.00000e-13
1131.64	1.00000e-13
1136.16	1.00000e-13
1140.69	1.00000e-13
1145.22	1.00000e-13
1149.74	1.00000e-13
1154.27	1.00000e-13
1158.80	1.00000e-13
1163.32	1.00000e-13
1167.85	1.00000e-13
1172.38	1.00000e-13
1176.91	6.95121e-6
1181.44	1.12378e-5
1185.96	1.00000e-13
1190.48	7.64633e-6
1195.01	1.00000e-13
1199.54	1.00000e-13
1204.06	1.00000e-13
1208.59	4.63414e-7
1213.12	1.00000e-13
1217.64	1.00000e-13
1222.17	1.00000e-13
1226.70	1.00000e-13
1231.22	1.00000e-13
1235.75	1.00000e-13
1240.27	1.00000e-13
1244.80	1.00000e-13
1249.33	1.00000e-13
1253.86	1.00000e-13
1258.38	1.00000e-13
1262.91	1.00000e-13
1267.43	2.54878e-6
1271.96	5.00603e-4
1276.49	9.24383e-3
1281.02	0.0102041
1285.54	7.37987e-5
1290.07	1.00000e-13
1294.60	1.00000e-13
1299.13	1.00000e-13
1303.66	1.00000e-13
1308.17	1.00000e-13
1312.71	5.32926e-6
1314.64	1.00000e-13

File: 005dB1-rGPC TG.txt
Filename	005dB1-rGPC
Instrument name
Operator	Gwenael
rundate	2025-01-13
Sample name	005dB1-rGPC
[step]
Step 1
Time	Temperature	Weight	Weight	Deriv. Weight
min	°C	mg	%	% / °C
0.01	24.75	3.958	99.981	2.03500e-3
4.73	39.35	3.984	100.624	-1.00973e-3
9.53	62.58	3.984	100.640	-3.02990e-3
14.33	86.27	3.983	100.594	-3.95759e-3
19.13	102.97	3.972	100.332	-6.51994e-3
23.93	100.72	3.967	100.214	-6.22199e-3
28.73	109.68	3.969	100.242	-4.82022e-3
33.53	132.68	3.966	100.184	-5.62118e-3
38.33	156.80	3.964	100.117	-7.75539e-3
43.13	180.93	3.955	99.900	-0.0104514
47.93	204.94	3.940	99.509	-0.0129352
52.73	228.96	3.925	99.154	-0.0154298
57.53	253.01	3.913	98.836	-0.0194058
62.33	277.05	3.897	98.439	-0.0253061
67.13	299.29	3.872	97.808	-0.0349368
71.93	301.26	3.844	97.096	-0.0527191
76.73	299.66	3.825	96.625	-0.0947495
81.53	300.03	3.809	96.221	0.434196
86.33	300.03	3.795	95.849	0.699606
91.13	299.99	3.780	95.488	-3.20288
95.93	300.00	3.768	95.168	15.2504
100.73	300.00	3.754	94.824	5.89203
105.53	300.00	3.741	94.494	-48.3639
110.33	300.00	3.728	94.174	94.0895
115.13	300.00	3.716	93.859	-64.7613
119.93	300.00	3.704	93.557	-79.2948
124.73	300.00	3.692	93.248	43.7338
129.52	300.00	3.680	92.949	23.3277
134.33	300.00	3.668	92.656	78.2680
139.13	300.00	3.657	92.364	-71.4882
143.93	300.00	3.646	92.087	-134.830
148.73	300.00	3.634	91.791	-204.587
153.53	300.00	3.623	91.513	-218.605
158.33	300.00	3.613	91.250	-118.238
163.13	300.00	3.601	90.970	-142.687
167.93	300.00	3.591	90.710	8.53507
172.73	300.00	3.581	90.444	-45.3957
177.53	300.00	3.570	90.179	13.9304
182.33	300.00	3.560	89.931	-32.6096
187.13	300.00	3.550	89.665	10.0769
191.93	300.00	3.540	89.428	-90.1778
196.73	300.00	3.531	89.185	-5.76277
201.53	300.00	3.521	88.934	119.599
206.33	300.00	3.512	88.698	19.4307
211.13	300.00	3.502	88.463	97.9003
215.93	300.00	3.493	88.221	-73.8152
220.73	300.00	3.484	88.008	-45.8827
225.53	300.00	3.475	87.768	-65.2359
230.33	300.00	3.466	87.537	28.6410
235.13	300.00	3.457	87.315	88.3690
239.93	300.00	3.448	87.096	-17.1083
244.73	300.00	3.440	86.879	-46.2750
249.53	300.00	3.431	86.663	-150.292
254.33	300.00	3.422	86.448	-91.1841
259.13	300.00	3.414	86.239	-60.8167
263.92	300.00	3.406	86.030	1.62378
268.73	300.00	3.397	85.817	-33.5130
273.53	300.00	3.389	85.612	13.2285
278.33	300.00	3.381	85.406	11.3795
283.13	300.00	3.373	85.208	90.9323
287.93	300.00	3.365	85.004	-45.2171
292.73	300.00	3.358	84.809	29.3621
297.53	300.00	3.350	84.608	-47.9048
302.33	300.00	3.342	84.413	-37.3554
307.13	300.00	3.334	84.217	-40.0062
311.93	300.00	3.327	84.027	98.8912
316.73	300.00	3.319	83.829	49.1020
321.53	300.00	3.311	83.639	3.07004
326.33	300.00	3.304	83.452	85.7716
331.13	300.00	3.296	83.260	3.63019
335.93	300.00	3.289	83.075	98.5330
340.73	300.00	3.281	82.885	8.66900
345.53	300.00	3.274	82.700	32.8617
350.33	300.00	3.267	82.511	-28.3151
355.13	300.00	3.259	82.327	-67.9136
359.93	300.00	3.252	82.140	-44.2172
364.73	300.00	3.245	81.954	22.0182
369.53	300.00	3.237	81.775	54.1871
374.33	300.00	3.230	81.587	106.292
379.13	300.00	3.223	81.405	153.314
383.93	300.00	3.215	81.220	-3.59360
388.73	300.00	3.209	81.048	-40.8050
393.53	300.00	3.202	80.869	-26.0513
398.33	300.00	3.194	80.685	-29.4077
403.13	300.00	3.187	80.500	-1.96685
407.93	300.00	3.180	80.320	-0.228863
412.73	300.00	3.173	80.146	-42.5775
417.53	300.00	3.166	79.969	-65.4450
422.33	300.00	3.159	79.789	-4.99706
427.13	300.00	3.152	79.613	-26.4514
431.93	300.00	3.145	79.446	52.2085
436.73	300.00	3.138	79.259	16.0594
441.53	300.00	3.131	79.086	4.53538
446.33	300.00	3.124	78.917	17.1543
451.13	300.00	3.118	78.746	45.0008
455.93	300.00	3.111	78.569	30.7463
460.73	300.00	3.103	78.386	-0.815427
465.53	300.00	3.097	78.225	-80.6776
470.33	300.00	3.090	78.045	-115.821
475.13	300.00	3.083	77.869	-131.346
479.93	300.00	3.076	77.699	-138.621
484.73	300.00	3.069	77.528	-97.9342
489.53	300.00	3.063	77.371	-55.2032
494.33	300.00	3.056	77.198	48.6894
499.13	300.00	3.050	77.032	68.3430
503.93	300.00	3.044	76.887	86.6815
508.73	300.00	3.038	76.726	14.5701
513.53	300.00	3.032	76.575	-19.4129
518.33	300.00	3.025	76.419	10.3633
523.13	300.00	3.019	76.266	34.4506
527.93	300.00	3.014	76.121	27.9325
532.72	300.00	3.008	75.973	63.2323
537.53	300.00	3.002	75.836	41.9297
542.33	300.00	2.996	75.673	4.10248
547.13	300.00	2.990	75.525	45.2932
551.93	300.00	2.984	75.366	-59.9558
556.73	300.00	2.978	75.227	-84.1716
561.53	300.00	2.972	75.062	16.2007
566.33	300.00	2.966	74.917	36.7745
571.13	300.00	2.960	74.764	48.4458
575.93	300.00	2.954	74.618	64.9096
580.73	300.00	2.948	74.461	32.9757
585.53	300.00	2.942	74.306	-73.5107
590.33	300.00	2.936	74.156	-34.3617
595.13	300.00	2.930	74.000	66.4411
599.93	300.00	2.924	73.853	-35.0498
604.73	300.00	2.918	73.707	-21.3397
609.53	300.00	2.912	73.548	37.7465
614.33	300.00	2.906	73.392	0.266740
619.13	300.00	2.900	73.239	31.9173
623.93	300.00	2.894	73.087	23.8063
628.73	300.00	2.887	72.924	44.8437
633.53	300.00	2.881	72.778	-36.5832
638.33	300.00	2.875	72.624	0.713221
643.13	300.00	2.870	72.481	-39.2433
647.93	300.00	2.863	72.327	4.20013
652.73	300.00	2.858	72.184	-47.9043
657.53	300.00	2.851	72.024	44.2737
662.33	300.00	2.845	71.874	-10.3764
667.13	300.00	2.839	71.719	49.5302
671.93	300.00	2.834	71.571	67.3973
676.73	300.00	2.828	71.425	52.5720
681.53	300.00	2.822	71.272	16.4735
686.33	300.00	2.816	71.127	-21.6314
691.13	300.00	2.810	70.976	-48.1168
695.93	300.00	2.804	70.827	13.9711
700.73	300.00	2.798	70.669	-37.2990
705.53	300.00	2.792	70.525	15.7952
710.33	300.00	2.786	70.379	-33.1564
715.13	300.00	2.780	70.225	-5.69824
719.93	300.00	2.774	70.081	-37.9041
724.73	300.00	2.768	69.917	35.0816
729.53	300.00	2.763	69.784	7.41925
734.33	300.00	2.757	69.629	74.8484
739.13	300.00	2.751	69.487	78.7171
743.93	300.00	2.745	69.334	39.5556
748.73	300.00	2.739	69.181	-51.7243
753.53	300.00	2.733	69.038	-98.4458
758.33	300.00	2.727	68.888	-71.8043
763.13	300.00	2.721	68.736	-79.8816
767.93	300.00	2.715	68.587	51.0808
772.73	300.00	2.710	68.455	26.3275
777.53	300.00	2.704	68.295	-0.860559
782.33	300.00	2.698	68.141	-18.3693
787.13	300.00	2.693	68.014	-6.63008
791.93	300.00	2.687	67.877	13.3365
796.73	300.00	2.682	67.737	48.1699
801.53	300.00	2.676	67.593	62.1493
806.33	300.00	2.671	67.455	26.9802
811.13	300.00	2.665	67.309	-3.40952
815.93	300.00	2.659	67.159	-19.5763
820.73	300.00	2.654	67.037	-39.2190
825.53	300.00	2.648	66.887	-61.5651
830.33	300.00	2.643	66.755	-29.6033
835.13	300.00	2.637	66.612	-0.800976
839.93	300.00	2.631	66.469	35.7327
844.73	300.00	2.626	66.326	105.182
849.53	300.00	2.620	66.167	85.1975
854.33	300.00	2.616	66.072	27.0862
859.13	300.00	2.610	65.921	-95.9570
863.93	300.00	2.604	65.781	-59.4961
868.73	300.00	2.599	65.641	-71.9162
873.53	300.00	2.593	65.507	-21.2356
878.33	300.00	2.588	65.363	50.0380
883.13	300.00	2.582	65.229	-23.5722
887.93	300.00	2.577	65.101	-28.3577
892.73	300.00	2.572	64.963	-4.19100
897.53	300.00	2.566	64.818	64.2365
902.33	300.00	2.561	64.699	49.4362
907.13	300.00	2.556	64.562	53.8112
911.93	300.00	2.551	64.432	-6.00857
916.73	300.00	2.546	64.297	-111.662
921.53	300.00	2.540	64.167	-105.204
926.33	300.00	2.535	64.040	-93.2280
931.13	300.00	2.530	63.903	-10.1618
935.93	300.00	2.524	63.759	21.2736
940.73	300.00	2.520	63.648	117.920
945.53	300.00	2.515	63.523	51.3561
950.33	300.00	2.510	63.395	18.9184
955.13	300.00	2.505	63.267	31.9065
959.93	300.00	2.500	63.138	19.2600
964.73	300.00	2.495	63.010	-20.1680
969.53	300.00	2.489	62.881	23.7528
974.33	300.00	2.484	62.746	-26.2186
979.13	300.00	2.479	62.625	-33.5005
983.93	300.00	2.474	62.496	-42.7296
988.73	300.00	2.469	62.365	-6.38103
993.53	300.00	2.464	62.233	14.3434
998.33	300.00	2.459	62.110	-13.4028
1003.13	300.00	2.454	61.987	36.8931
1007.93	300.00	2.449	61.865	48.7665
1012.73	300.00	2.444	61.742	31.1485
1017.53	300.00	2.439	61.611	-10.4187
1022.33	300.00	2.435	61.493	-17.3586
1027.13	300.00	2.429	61.366	-64.7455
1031.93	300.00	2.425	61.242	-63.5837
1036.73	300.00	2.419	61.111	-8.71195
1041.53	300.00	2.415	60.993	4.74734
1046.32	300.00	2.410	60.864	-52.4626
1051.13	300.00	2.405	60.747	7.60614
1055.93	300.00	2.400	60.624	20.6927
1060.73	300.00	2.395	60.506	29.4383
1065.53	300.00	2.391	60.397	17.9966
1070.32	300.00	2.386	60.271	65.7902
1075.13	300.00	2.382	60.156	51.4284
1079.93	300.00	2.377	60.041	7.00257
1084.73	300.00	2.372	59.920	23.8470
1089.53	300.00	2.368	59.809	-86.1062
1094.33	300.00	2.363	59.686	-42.9003
1099.13	300.00	2.358	59.564	-1.36675
1103.93	300.00	2.353	59.440	5.82356
1108.73	300.00	2.349	59.325	-15.3803
1113.53	300.00	2.344	59.210	34.1994
1118.33	300.00	2.339	59.087	-31.6783
1123.13	300.00	2.335	58.970	-33.5138
1127.93	300.00	2.330	58.860	32.5989
1132.73	300.00	2.326	58.748	84.1577
1137.53	300.00	2.321	58.626	-29.9464
1142.33	300.00	2.317	58.526	-19.4519
1147.13	300.00	2.312	58.405	-33.9478
1151.93	300.00	2.308	58.295	-39.0315
1156.73	300.00	2.303	58.176	21.1642
1161.53	300.00	2.299	58.065	-8.44188
1166.33	300.00	2.295	57.957	46.0564
1171.13	300.00	2.290	57.840	-8.79907
1175.93	300.00	2.285	57.728	22.2123
1180.73	300.00	2.281	57.609	-20.0528
1185.53	300.00	2.277	57.505	7.23747
1190.33	300.00	2.272	57.384	-62.1978
1195.13	300.00	2.268	57.280	-40.2350
1199.93	300.00	2.263	57.164	-3.66196
1204.73	300.00	2.259	57.062	-17.0602
1209.53	300.00	2.254	56.937	7.03178
1214.33	300.00	2.250	56.832	53.7420
1219.13	300.00	2.246	56.727	34.0674
1223.93	300.00	2.242	56.619	19.4006
1228.73	300.00	2.237	56.501	28.0256
1233.53	300.00	2.233	56.405	13.9680
1238.33	300.00	2.229	56.293	-50.8913
1243.13	300.00	2.224	56.176	-37.4397
1247.93	300.00	2.220	56.073	-52.1064
1252.73	300.00	2.215	55.956	-0.0335184
1257.53	300.00	2.211	55.848	-0.0213372
1262.33	300.00	2.207	55.739	-0.0855694
1267.13	309.93	2.203	55.650	-0.246383
1271.93	355.23	2.162	54.599	-0.296912
1276.73	404.01	1.660	41.936	-0.281379
1281.53	452.16	0.180	4.534	-0.248669
1286.33	500.33	0.058	1.462	-0.183082
1291.13	548.45	0.055	1.400	-0.0758770
1295.93	596.57	0.055	1.391	-3.56824e-3
1300.73	644.66	0.053	1.349	-3.53475e-4
1305.53	692.74	0.054	1.363	-2.92271e-4
1310.33	740.81	0.053	1.342	-3.13099e-4
1314.83	785.87	0.053	1.332	-2.74465e-4

File: 005dB1-rGPC+flash MS_104 AMU_XIC
Time	Ion Current
min	mA
0.00	1.00000e-13
4.53	1.00000e-13
9.05	1.00000e-13
13.58	1.00000e-13
18.11	1.00000e-13
22.63	1.00000e-13
27.16	1.00000e-13
31.69	1.00000e-13
36.21	1.00000e-13
40.74	1.00000e-13
45.27	1.00000e-13
49.79	1.00000e-13
54.32	1.48292e-5
58.85	1.00000e-13
63.37	1.00000e-13
67.90	2.96585e-5
72.43	3.12804e-6
76.95	3.86951e-5
81.48	5.90853e-6
86.01	1.49451e-5
90.53	1.00000e-13
95.06	1.00000e-13
99.59	1.00000e-13
104.11	1.00000e-13
108.64	1.00000e-13
113.17	8.45730e-6
117.69	4.05487e-6
122.22	1.00000e-13
126.75	1.00000e-13
131.27	1.00000e-13
135.80	3.03536e-5
140.32	1.00000e-13
144.85	1.00000e-13
149.38	1.00000e-13
153.91	6.37194e-6
158.43	2.78048e-6
162.96	1.00000e-13
167.48	1.00000e-13
172.01	1.00000e-13
176.54	1.00000e-13
181.06	8.22560e-6
185.59	1.00000e-13
190.12	3.01219e-6
194.64	1.00000e-13
199.17	1.00000e-13
203.69	3.86951e-5
208.22	1.00000e-13
212.75	1.00000e-13
217.27	1.00000e-13
221.80	2.56036e-5
226.33	1.00000e-13
230.85	3.47560e-7
235.38	1.00000e-13
239.91	1.00000e-13
244.43	1.00000e-13
248.96	1.00000e-13
253.49	1.00000e-13
258.01	1.00000e-13
262.54	1.00000e-13
267.07	1.00000e-13
271.59	1.00000e-13
276.12	1.00000e-13
280.65	1.00000e-13
285.17	1.00000e-13
289.70	1.11219e-5
294.22	1.00000e-13
298.75	1.00000e-13
303.28	1.00000e-13
307.80	8.57316e-6
312.33	1.00000e-13
316.86	4.74999e-6
321.38	1.05427e-5
325.91	1.00000e-13
330.44	1.00000e-13
334.96	1.00000e-13
339.49	1.00000e-13
344.02	1.00000e-13
348.54	1.00000e-13
353.07	1.00000e-13
357.60	4.25182e-5
362.12	4.63414e-6
366.65	1.00000e-13
371.17	1.00000e-13
375.70	1.00000e-13
380.23	1.00000e-13
384.76	1.00000e-13
389.28	5.79267e-7
393.81	1.00000e-13
398.33	1.67988e-5
402.86	1.00000e-13
407.39	1.00000e-13
411.92	1.00000e-13
416.44	1.00000e-13
420.97	2.66463e-6
425.49	9.96340e-6
430.02	1.00000e-13
434.55	1.00000e-13
439.07	1.00000e-13
443.60	1.51768e-5
448.13	1.00000e-13
452.66	1.00793e-5
457.18	1.00000e-13
461.71	1.00000e-13
466.23	1.00000e-13
470.76	1.00000e-13
475.29	1.00000e-13
479.81	1.00000e-13
484.34	1.00000e-13
488.87	7.53048e-6
493.39	1.00000e-13
497.92	1.00000e-13
502.45	1.00000e-13
506.97	1.00000e-13
511.50	4.32133e-5
516.03	1.00000e-13
520.55	1.00000e-13
525.08	1.00000e-13
529.60	1.00000e-13
534.13	1.00000e-13
538.66	1.00000e-13
543.19	1.00000e-13
547.71	1.00000e-13
552.24	1.00000e-13
556.76	1.00000e-13
561.29	1.00000e-13
565.82	1.00000e-13
570.34	2.31707e-6
574.87	1.00000e-13
579.40	1.00000e-13
583.92	1.00000e-13
588.45	1.00000e-13
592.98	1.00000e-13
597.50	1.00000e-13
602.03	1.00000e-13
606.56	1.00000e-13
611.08	1.00000e-13
615.61	1.00000e-13
620.13	1.00000e-13
624.66	1.00000e-13
629.19	1.00000e-13
633.72	1.00000e-13
638.24	1.29756e-5
642.77	5.67682e-6
647.29	1.95792e-5
651.82	1.00000e-13
656.35	3.03536e-5
660.87	1.00000e-13
665.40	1.00000e-13
669.93	1.00000e-13
674.46	1.69146e-5
678.98	1.00000e-13
683.51	1.00000e-13
688.03	1.00000e-13
692.56	1.00000e-13
697.09	1.00000e-13
701.61	1.00000e-13
706.14	1.00000e-13
710.66	1.00000e-13
715.19	1.00000e-13
719.72	1.00000e-13
724.24	1.00000e-13
728.77	1.00000e-13
733.30	1.00000e-13
737.82	1.00000e-13
742.35	1.72622e-5
746.88	1.00000e-13
751.40	1.00000e-13
755.93	1.00000e-13
760.46	1.00000e-13
764.98	1.00000e-13
769.51	1.00000e-13
774.04	1.00000e-13
778.57	1.00000e-13
783.09	1.00000e-13
787.62	1.00000e-13
792.14	1.00000e-13
796.67	3.93902e-6
801.20	1.00000e-13
805.72	1.00000e-13
810.25	1.98109e-5
814.77	1.00000e-13
819.30	2.07378e-5
823.83	1.00000e-13
828.35	1.00000e-13
832.88	1.00000e-13
837.41	1.00000e-13
841.93	1.00000e-13
846.46	1.00000e-13
850.99	1.00000e-13
855.52	1.00000e-13
860.04	1.00000e-13
864.57	1.19329e-5
869.10	1.00000e-13
873.62	5.44511e-5
878.15	3.30182e-5
882.67	2.07378e-5
887.20	1.00000e-13
891.73	1.00000e-13
896.26	1.00000e-13
900.78	1.00000e-13
905.31	1.00000e-13
909.83	1.00000e-13
914.36	1.00000e-13
918.89	1.00000e-13
923.41	1.00000e-13
927.94	8.10974e-6
932.47	1.00000e-13
936.99	1.00000e-13
941.52	1.00000e-13
946.05	1.00000e-13
950.58	1.00000e-13
955.10	1.00000e-13
959.63	1.00000e-13
964.15	1.00000e-13
968.68	1.00000e-13
973.21	1.00000e-13
977.73	1.65670e-5
982.26	1.00000e-13
986.78	1.00000e-13
991.31	1.00000e-13
995.84	1.00000e-13
1000.37	1.00000e-13
1004.89	1.00000e-13
1009.42	8.68901e-6
1013.95	1.00000e-13
1018.47	1.00000e-13
1023.00	1.00000e-13
1027.52	1.00000e-13
1032.05	1.06585e-5
1036.58	1.00000e-13
1041.10	1.30914e-5
1045.63	1.00000e-13
1050.16	1.00000e-13
1054.68	3.92743e-5
1059.21	1.00000e-13
1063.74	1.00000e-13
1068.27	1.00000e-13
1072.79	1.00000e-13
1077.32	1.00000e-13
1081.84	1.00000e-13
1086.37	1.00000e-13
1090.90	1.00000e-13
1095.42	1.23963e-5
1099.95	1.00000e-13
1104.48	1.00000e-13
1109.01	1.15853e-6
1113.53	1.00000e-13
1118.06	1.43658e-5
1122.58	1.00000e-13
1127.11	1.00000e-13
1131.63	1.00000e-13
1136.16	1.00000e-13
1140.69	1.00000e-13
1145.21	1.00000e-13
1149.74	1.00000e-13
1154.27	5.79267e-7
1158.80	1.23963e-5
1163.32	1.00000e-13
1167.85	1.00000e-13
1172.38	1.00000e-13
1176.90	1.49451e-5
1181.43	1.00000e-13
1185.95	5.79267e-7
1190.48	1.00000e-13
1195.01	1.00000e-13
1199.53	1.00000e-13
1204.06	1.00000e-13
1208.59	1.00000e-13
1213.12	1.00000e-13
1217.64	1.00000e-13
1222.17	1.94634e-5
1226.69	1.00000e-13
1231.22	1.00000e-13
1235.75	1.00000e-13
1240.27	1.00000e-13
1244.80	1.00000e-13
1249.33	1.00000e-13
1253.85	1.00000e-13
1258.38	1.00000e-13
1262.91	1.00000e-13
1267.43	1.00000e-13
1271.96	8.42023e-4
1276.49	0.0112853
1281.01	0.0132282
1285.54	2.24987e-4
1290.06	2.81524e-5
1294.59	9.26828e-6
1299.12	1.00000e-13
1303.64	1.00000e-13
1308.17	1.00000e-13
1312.70	1.00000e-13
1314.32	1.00000e-13