Folder: data-visualizer/data/TGA/005d-L_M (part 6)

File: L1.txt
Filename	L1
Instrument name
Operator	Gwenael
rundate	2025-02-10
Sample name	L1
[step]
Step 1
Time	Temperature	Weight	Weight	Deriv. Weight
min	°C	mg	%	% / °C
0,01	26,79	3,760	100,026	4,33190e-4
4,71	41,27	3,767	100,201	-2,33661e-3
9,46	64,36	3,765	100,169	-7,54717e-3
14,21	87,80	3,755	99,898	-0,0173196
18,96	103,02	3,736	99,376	-0,0330703
23,71	100,60	3,725	99,088	-0,0229273
28,46	110,39	3,720	98,954	-0,0124434
33,21	133,15	3,711	98,719	-0,0133197
37,96	157,04	3,697	98,350	-0,0184441
42,71	180,90	3,678	97,851	-0,0252489
47,46	204,69	3,652	97,162	-0,0332247
52,21	228,44	3,619	96,271	-0,0409266
56,96	252,24	3,579	95,213	-0,0473736
61,71	276,02	3,534	94,009	-0,0566983
66,46	298,66	3,484	92,677	-0,0773647
71,21	301,41	3,445	91,657	-0,130344
75,96	299,67	3,424	91,098	0,575836
80,71	300,01	3,409	90,701	0,0227879
85,46	300,04	3,396	90,346	-1,76059
90,21	299,99	3,385	90,057	7,02884
94,96	300,00	3,375	89,789	-19,5934
99,71	300,00	3,366	89,556	-10,3378
104,46	300,00	3,358	89,332	28,5740
109,21	300,00	3,351	89,143	-99,2275
113,96	300,00	3,344	88,958	-5,20836
118,71	300,00	3,338	88,789	35,7910
123,46	300,00	3,332	88,634	51,5738
128,21	300,00	3,326	88,491	-5,11598
132,96	300,00	3,321	88,351	-7,97178
137,71	300,00	3,316	88,212	-63,8465
142,46	300,00	3,311	88,080	-88,3708
147,21	300,00	3,306	87,948	-25,0497
151,96	300,00	3,302	87,838	36,3224
156,71	300,00	3,297	87,718	50,5026
161,46	300,00	3,293	87,606	11,5403
166,21	300,00	3,289	87,491	-37,5937
170,96	300,00	3,285	87,380	-31,3458
175,71	300,00	3,281	87,278	-13,9174
180,46	300,00	3,277	87,183	15,4161
185,21	300,00	3,273	87,078	8,66330
189,96	299,99	3,270	86,984	-2,51197
194,71	300,00	3,266	86,896	-14,6589
199,46	300,00	3,263	86,808	25,8278
204,21	300,00	3,260	86,718	-32,2773
208,96	300,00	3,256	86,630	-44,0967
213,71	300,00	3,253	86,527	-12,2578
218,46	300,00	3,249	86,422	10,1262
223,21	300,00	3,246	86,342	16,0302
227,96	300,00	3,243	86,268	25,7518
232,71	300,00	3,240	86,190	14,6288
237,46	300,00	3,236	86,100	-38,7078
242,21	300,00	3,233	86,011	-39,0599
246,96	300,00	3,230	85,930	-7,87954
251,71	300,00	3,228	85,872	23,6490
256,46	300,00	3,224	85,771	30,9158
261,21	300,00	3,221	85,688	-30,2380
265,96	300,00	3,218	85,608	-1,48008
270,71	300,00	3,215	85,523	25,5109
275,46	300,00	3,212	85,453	-10,4558
280,21	300,00	3,209	85,367	-45,6022
284,96	300,00	3,206	85,282	-0,576137
289,71	300,00	3,203	85,212	21,7794
294,46	300,00	3,200	85,130	27,8001
299,21	300,00	3,197	85,050	6,23263
303,96	300,00	3,194	84,973	-5,56237
308,71	300,00	3,191	84,896	-34,7926
313,46	300,00	3,188	84,813	-15,2052
318,21	300,00	3,185	84,740	-10,4376
322,96	300,00	3,182	84,640	28,3396
327,71	300,00	3,179	84,583	34,9036
332,46	300,00	3,177	84,513	10,6303
337,21	300,00	3,174	84,431	-14,7671
341,96	300,00	3,171	84,362	17,8263
346,71	300,00	3,169	84,293	-13,5422
351,46	300,00	3,166	84,211	-14,5708
356,21	300,00	3,163	84,137	16,6059
360,96	300,00	3,160	84,059	34,4827
365,71	300,00	3,157	83,992	-28,0804
370,46	300,00	3,155	83,922	-0,996402
375,21	300,00	3,152	83,850	32,6426
379,96	300,00	3,149	83,776	2,63606
384,71	300,00	3,146	83,700	-8,32040
389,46	300,00	3,143	83,614	2,53319
394,21	300,00	3,141	83,547	-10,8359
398,96	300,00	3,137	83,465	-13,2698
403,71	300,00	3,135	83,403	34,5938
408,46	300,00	3,132	83,323	16,1383
413,21	300,00	3,129	83,247	-13,9749
417,96	300,00	3,127	83,174	-16,9545
422,71	300,00	3,123	83,086	11,2767
427,46	300,00	3,120	83,012	-30,3246
432,21	300,00	3,117	82,932	5,34579
436,96	300,00	3,114	82,836	-1,06157
441,71	300,00	3,111	82,766	10,9010
446,46	300,00	3,108	82,694	15,1830
451,21	300,00	3,105	82,610	10,6461
455,96	300,00	3,103	82,540	-21,2945
460,71	300,00	3,099	82,448	-7,81836
465,46	300,00	3,097	82,388	12,2425
470,21	300,00	3,095	82,325	-7,72365
474,96	300,00	3,092	82,245	23,8385
479,71	300,00	3,089	82,167	9,72159
484,46	300,00	3,086	82,098	-9,61844
489,21	300,00	3,083	82,011	-1,26735
493,96	300,00	3,081	81,955	-1,24718
498,71	300,00	3,078	81,879	16,1007
503,46	300,00	3,075	81,802	-0,0937181
508,21	300,00	3,072	81,726	8,44472
512,96	300,00	3,069	81,653	-19,3278
517,71	300,00	3,066	81,554	0,286026
522,46	300,00	3,064	81,503	10,1330
527,21	300,00	3,061	81,429	-19,8160
531,96	300,00	3,058	81,354	-15,9841
536,71	300,00	3,055	81,280	8,06248
541,46	300,00	3,053	81,213	17,7412
546,21	300,00	3,050	81,130	-19,0781
550,96	300,00	3,047	81,069	-36,5331
555,71	300,00	3,045	81,002	-28,8627
560,46	300,00	3,042	80,935	-34,5693
565,21	300,00	3,040	80,868	-19,3817
569,96	300,00	3,038	80,807	-32,1913
574,71	300,00	3,035	80,742	-14,7536
579,46	300,00	3,033	80,677	-0,983974
584,21	300,00	3,031	80,631	17,3843
588,96	300,00	3,029	80,576	11,4578
593,71	300,00	3,027	80,536	13,2522
598,46	300,00	3,025	80,468	16,8489
603,21	300,00	3,024	80,435	2,05512
607,96	300,00	3,022	80,386	-28,4016
612,71	300,00	3,020	80,328	-29,3730
617,46	300,00	3,017	80,259	-31,8763
622,21	300,00	3,016	80,235	-2,69305
626,96	300,00	3,013	80,162	3,04786
631,71	300,00	3,012	80,121	13,9601
636,46	300,00	3,010	80,066	21,6571
641,21	300,00	3,007	80,006	17,9971
645,96	300,00	3,005	79,944	-18,3286
650,71	300,00	3,003	79,890	-23,5434
655,46	300,00	3,001	79,829	-15,3761
660,21	300,00	2,998	79,765	18,7046
664,96	300,00	2,996	79,711	14,4052
669,71	300,00	2,994	79,653	-2,73783
674,46	300,00	2,992	79,590	22,8594
679,21	300,00	2,990	79,542	20,3020
683,96	300,00	2,988	79,483	-12,4434
688,71	300,00	2,986	79,426	-3,46067
693,46	300,00	2,984	79,372	18,1970
698,21	300,00	2,982	79,318	1,89045
702,96	300,00	2,979	79,254	-13,6594
707,71	300,00	2,977	79,209	10,0217
712,46	300,00	2,975	79,151	20,2102
717,21	300,00	2,973	79,092	-4,46367
721,96	300,00	2,971	79,026	-16,3364
726,71	300,00	2,968	78,965	-4,95488
731,46	300,00	2,966	78,902	21,7696
736,21	300,00	2,964	78,854	-7,41549
740,96	300,00	2,961	78,774	-13,5757
745,71	300,00	2,959	78,715	11,0306
750,46	300,00	2,957	78,656	29,6544
755,21	300,00	2,954	78,588	-4,21797
759,96	300,00	2,952	78,529	23,2794
764,71	300,00	2,950	78,470	23,4508
769,46	300,00	2,947	78,405	2,42680
774,21	300,00	2,945	78,343	-28,8417
778,96	300,00	2,942	78,273	-27,9291
783,71	300,00	2,941	78,241	-1,96531
788,46	300,00	2,937	78,132	25,4615
793,21	300,00	2,935	78,077	32,6578
797,96	300,00	2,932	78,007	10,4874
802,71	300,00	2,930	77,944	32,1329
807,46	300,00	2,927	77,872	21,5234
812,21	300,00	2,926	77,831	-14,8510
816,96	300,00	2,922	77,732	-19,3501
821,71	300,00	2,920	77,691	2,04275
826,46	300,00	2,917	77,613	13,0795
831,21	300,00	2,915	77,550	8,61322
835,96	300,00	2,914	77,519	14,6414
840,71	300,00	2,911	77,433	1,33022
845,46	300,00	2,909	77,380	7,67915
850,21	300,00	2,908	77,351	-3,79837
854,96	300,00	2,904	77,266	6,34470
859,71	300,00	2,902	77,197	-6,47375
864,46	300,00	2,900	77,140	11,4459
869,21	300,00	2,898	77,082	15,5188
873,96	300,00	2,895	77,012	-12,6816
878,71	300,00	2,893	76,956	-35,5337
883,46	300,00	2,890	76,893	19,7533
888,21	300,00	2,888	76,836	27,0834
892,96	300,00	2,886	76,769	-2,57589
897,71	300,00	2,884	76,713	-10,5628
902,46	300,00	2,881	76,651	12,8894
907,21	300,00	2,879	76,598	39,2967
911,96	300,00	2,877	76,525	-11,9316
916,71	300,00	2,874	76,463	-18,9482
921,46	300,00	2,872	76,406	-2,95855
926,21	300,00	2,870	76,337	22,8983
930,96	300,00	2,868	76,292	6,31726
935,71	300,00	2,865	76,216	-7,76362
940,46	300,00	2,863	76,152	22,3593
945,21	300,00	2,860	76,094	-6,50077
949,96	300,00	2,858	76,032	-37,1467
954,71	300,00	2,856	75,975	9,26641
959,46	300,00	2,853	75,904	25,9373
964,21	300,00	2,851	75,841	3,35471
968,96	300,00	2,849	75,785	-11,4501
973,71	300,00	2,846	75,712	-20,7494
978,46	300,00	2,844	75,651	-24,1104
983,21	300,00	2,842	75,605	15,3681
987,96	300,00	2,840	75,552	22,4075
992,71	300,00	2,837	75,468	-1,06399
997,46	300,00	2,835	75,406	-18,0759
1002,21	300,00	2,833	75,353	0,334297
1006,96	300,00	2,830	75,283	24,8044
1011,71	300,00	2,827	75,215	-26,1636
1016,46	300,00	2,825	75,156	-23,7037
1021,21	300,00	2,823	75,104	21,6510
1025,96	300,00	2,820	75,026	15,8249
1030,71	300,00	2,818	74,957	14,9556
1035,46	300,00	2,816	74,910	-8,63278
1040,21	300,00	2,813	74,844	-14,3903
1044,96	300,00	2,811	74,789	1,51028
1049,71	300,00	2,809	74,721	27,5374
1054,46	300,00	2,806	74,643	-2,98229
1059,21	300,00	2,804	74,584	3,08486
1063,96	300,00	2,801	74,527	1,60802
1068,71	300,00	2,799	74,468	8,82336
1073,46	300,00	2,797	74,397	19,1208
1078,21	300,00	2,794	74,328	-2,76141
1082,96	300,00	2,792	74,273	-4,42084
1087,71	300,00	2,790	74,213	-10,2659
1092,46	300,00	2,787	74,139	-13,6015
1097,21	300,00	2,784	74,073	-19,9264
1101,96	300,00	2,782	74,015	-20,0398
1106,71	300,00	2,779	73,934	-28,2283
1111,46	300,00	2,777	73,870	36,7994
1116,21	300,00	2,774	73,809	15,2730
1120,96	300,00	2,772	73,745	2,63354
1125,71	300,00	2,770	73,688	6,67968
1130,46	300,00	2,768	73,624	5,80842
1135,21	300,00	2,765	73,557	-2,13072
1139,96	300,00	2,763	73,496	14,0281
1144,71	300,00	2,760	73,430	-20,8032
1149,46	300,00	2,758	73,370	12,3373
1154,21	300,00	2,755	73,300	-7,59648
1158,96	300,00	2,753	73,239	-3,06290
1163,71	300,00	2,751	73,180	-8,45095
1168,46	300,00	2,749	73,118	-19,5452
1173,21	300,00	2,746	73,043	14,0221
1177,96	300,00	2,744	72,991	27,0383
1182,71	300,00	2,742	72,937	-10,9913
1187,46	300,00	2,739	72,877	12,2027
1192,21	300,00	2,737	72,801	1,87514
1196,96	300,00	2,735	72,749	12,2956
1201,71	300,00	2,733	72,717	-25,2563
1206,46	300,00	2,730	72,623	-0,861927
1211,21	300,00	2,728	72,569	6,86512
1215,96	300,00	2,726	72,509	-16,6293
1220,71	300,00	2,723	72,439	-11,0766
1225,46	300,00	2,721	72,378	2,07915
1230,21	300,00	2,718	72,319	29,3423
1234,96	300,00	2,716	72,258	17,5650
1239,71	300,00	2,714	72,197	11,4956
1244,46	300,00	2,711	72,124	-10,0403
1249,21	300,00	2,709	72,069	-16,2820
1253,96	300,00	2,706	71,997	-29,5375
1258,71	300,00	2,704	71,937	-0,0100364
1263,46	300,00	2,702	71,871	-9,16948e-3
1268,21	323,30	2,699	71,800	-0,0626059
1272,96	369,82	2,642	70,281	-0,348071
1277,71	417,95	1,795	47,762	-0,582222
1282,46	465,57	0,080	2,139	-0,448343
1287,21	513,23	0,030	0,793	-0,0837183
1291,96	560,85	0,029	0,778	-2,61287e-4
1296,71	608,46	0,030	0,789	1,83455e-4
1301,46	656,05	0,030	0,799	4,08410e-4
1306,21	703,63	0,031	0,816	6,48978e-4
1310,96	751,19	0,032	0,854	7,70780e-4
1314,54	787,07	0,034	0,905	9,37188e-4

File: L1_000001 -temp_104 AMU_XIC
Time	Ion Current
min	mA
0.00	6.96279e-5
4.53	1.00000e-13
9.06	1.00000e-13
13.58	3.93902e-6
18.11	1.00000e-13
22.63	1.00000e-13
27.16	1.00000e-13
31.68	1.00000e-13
36.21	1.00000e-13
40.74	1.00000e-13
45.26	1.00000e-13
49.79	1.00000e-13
54.31	1.00000e-13
58.84	1.00000e-13
63.37	1.00000e-13
67.90	1.00000e-13
72.42	1.00000e-13
76.95	1.00000e-13
81.47	1.00000e-13
86.00	1.00000e-13
90.52	1.00000e-13
95.05	1.00000e-13
99.58	1.00000e-13
104.10	1.00000e-13
108.63	1.00000e-13
113.16	2.01585e-5
117.68	1.00000e-13
122.21	1.00000e-13
126.74	1.00000e-13
131.26	1.00000e-13
135.79	1.00000e-13
140.31	1.00000e-13
144.84	1.00000e-13
149.36	1.00000e-13
153.89	2.56036e-5
158.42	1.00000e-13
162.95	1.00000e-13
167.47	1.00000e-13
172.00	1.00000e-13
176.52	1.00000e-13
181.05	1.00000e-13
185.57	1.00000e-13
190.10	1.00000e-13
194.63	1.00000e-13
199.15	1.00000e-13
203.68	1.00000e-13
208.21	1.00000e-13
212.73	1.00000e-13
217.26	1.00000e-13
221.79	1.00000e-13
226.31	1.00000e-13
230.84	1.00000e-13
235.36	1.00000e-13
239.89	1.00000e-13
244.42	1.00000e-13
248.94	1.00000e-13
253.47	1.00000e-13
258.00	3.93902e-6
262.52	1.40183e-5
267.05	1.00000e-13
271.57	1.00000e-13
276.10	1.00000e-13
280.63	1.00000e-13
285.15	1.00000e-13
289.68	1.00000e-13
294.21	1.00000e-13
298.73	1.00000e-13
303.26	1.00000e-13
307.79	1.00000e-13
312.31	1.00000e-13
316.84	1.00000e-13
321.36	1.25122e-5
325.89	1.00000e-13
330.42	1.00000e-13
334.94	1.00000e-13
339.47	1.00000e-13
343.99	1.00000e-13
348.52	1.00000e-13
353.05	6.60365e-6
357.57	1.00000e-13
362.10	1.00000e-13
366.63	1.00000e-13
371.15	1.00000e-13
375.68	1.00000e-13
380.20	1.00000e-13
384.73	1.00000e-13
389.26	1.00000e-13
393.78	1.00000e-13
398.31	1.52927e-5
402.84	1.27439e-6
407.36	1.00000e-13
411.89	1.00000e-13
416.42	4.63414e-6
420.94	1.00000e-13
425.47	1.00000e-13
429.99	1.00000e-13
434.52	1.00000e-13
439.05	1.00000e-13
443.57	1.00000e-13
448.10	1.00000e-13
452.62	1.00000e-13
457.15	1.00000e-13
461.68	1.00000e-13
466.20	1.00000e-13
470.73	1.00000e-13
475.26	1.00000e-13
479.78	1.00000e-13
484.31	1.00000e-13
488.84	1.00000e-13
493.36	1.00000e-13
497.89	1.00000e-13
502.41	1.00000e-13
506.94	1.00000e-13
511.46	1.00000e-13
515.99	1.00000e-13
520.52	1.00000e-13
525.05	1.00000e-13
529.57	1.00000e-13
534.10	1.00000e-13
538.62	1.00000e-13
543.15	1.00000e-13
547.67	1.00000e-13
552.20	1.00000e-13
556.73	1.00000e-13
561.25	1.00000e-13
565.78	1.00000e-13
570.31	1.00000e-13
574.83	1.00000e-13
579.36	1.00000e-13
583.88	1.00000e-13
588.41	1.00000e-13
592.94	1.00000e-13
597.46	1.00000e-13
601.99	1.00000e-13
606.52	1.00000e-13
611.04	1.00000e-13
615.57	1.00000e-13
620.10	1.00000e-13
624.62	1.00000e-13
629.15	1.00000e-13
633.67	1.00000e-13
638.20	1.00000e-13
642.73	1.00000e-13
647.25	1.00000e-13
651.78	1.00000e-13
656.30	1.00000e-13
660.83	1.00000e-13
665.36	1.00000e-13
669.89	1.00000e-13
674.41	1.00000e-13
678.94	1.00000e-13
683.46	1.00000e-13
687.99	1.00000e-13
692.51	1.00000e-13
697.04	1.00000e-13
701.57	1.00000e-13
706.09	1.00000e-13
710.62	1.00000e-13
715.15	1.00000e-13
719.67	1.00000e-13
724.20	1.00000e-13
728.72	1.00000e-13
733.25	1.00000e-13
737.78	1.00000e-13
742.30	1.00000e-13
746.83	1.00000e-13
751.36	1.00000e-13
755.89	1.00000e-13
760.41	1.00000e-13
764.94	1.00000e-13
769.46	1.00000e-13
773.99	1.00000e-13
778.51	1.00000e-13
783.04	1.00000e-13
787.57	1.00000e-13
792.09	1.00000e-13
796.62	1.00000e-13
801.15	1.00000e-13
805.67	1.00000e-13
810.20	1.00000e-13
814.73	1.00000e-13
819.25	1.00000e-13
823.78	1.00000e-13
828.30	1.00000e-13
832.83	1.00000e-13
837.35	1.00000e-13
841.88	1.00000e-13
846.41	1.00000e-13
850.94	1.25122e-5
855.46	1.00000e-13
859.99	1.00000e-13
864.51	1.00000e-13
869.04	1.00000e-13
873.57	1.00000e-13
878.09	3.35975e-6
882.62	1.00000e-13
887.14	1.00000e-13
891.67	1.00000e-13
896.20	1.08902e-5
900.72	1.00000e-13
905.25	1.00000e-13
909.78	1.00000e-13
914.30	1.00000e-13
918.83	2.08536e-6
923.36	1.00000e-13
927.88	1.00000e-13
932.41	1.00000e-13
936.93	1.00000e-13
941.46	1.00000e-13
945.99	1.00000e-13
950.51	1.00000e-13
955.04	1.00000e-13
959.57	1.00000e-13
964.09	1.00000e-13
968.62	1.00000e-13
973.14	1.00000e-13
977.67	1.27439e-6
982.20	1.00000e-13
986.72	1.00000e-13
991.25	1.00000e-13
995.78	1.00000e-13
1000.30	1.00000e-13
1004.83	1.00000e-13
1009.35	1.00000e-13
1013.88	1.00000e-13
1018.41	1.00000e-13
1022.93	1.00000e-13
1027.46	1.00000e-13
1031.98	1.00000e-13
1036.51	1.00000e-13
1041.04	1.00000e-13
1045.56	1.00000e-13
1050.09	1.00000e-13
1054.61	1.00000e-13
1059.14	1.00000e-13
1063.67	1.00000e-13
1068.20	1.00000e-13
1072.72	1.00000e-13
1077.25	1.00000e-13
1081.77	1.00000e-13
1086.30	1.00000e-13
1090.82	1.00000e-13
1095.35	1.00000e-13
1099.88	1.00000e-13
1104.40	1.00000e-13
1108.93	1.00000e-13
1113.46	1.00000e-13
1117.99	1.00000e-13
1122.51	1.00000e-13
1127.04	1.00000e-13
1131.56	1.00000e-13
1136.09	1.00000e-13
1140.62	1.00000e-13
1145.14	1.00000e-13
1149.67	1.00000e-13
1154.19	1.00000e-13
1158.72	1.00000e-13
1163.25	5.90853e-6
1167.77	1.00000e-13
1172.30	1.00000e-13
1176.82	1.00000e-13
1181.35	1.00000e-13
1185.88	1.00000e-13
1190.41	1.00000e-13
1194.93	1.00000e-13
1199.46	1.00000e-13
1203.98	1.00000e-13
1208.51	1.00000e-13
1213.03	1.00000e-13
1217.56	1.47134e-5
1222.09	1.00000e-13
1226.61	1.00000e-13
1231.14	1.00000e-13
1235.67	1.00000e-13
1240.19	1.00000e-13
1244.72	1.00000e-13
1249.24	1.00000e-13
1253.77	1.00000e-13
1258.30	1.00000e-13
1262.83	1.00000e-13
1267.35	1.00000e-13
1271.88	4.33292e-5
1276.40	3.93288e-3
1280.93	0.0204981
1285.45	2.88371e-3
1289.98	3.64707e-4
1294.51	4.13597e-5
1299.03	1.00000e-13
1303.56	1.00000e-13
1308.09	1.00000e-13
1312.61	1.00000e-13
1314.23	1.00000e-13