Folder: data-visualizer/data/TGA/commercial_samples (part 10)

File: ExpDat_2025_09_07_SL_PS_Red_Solo_Cup_SCF3_P5EER3_V1_2_dynamic.csv
#EXPORTTYPE:                 ,DATA ALL
#FILE:                       ,2025_09_07_SL_PS_Red_Solo_Cup_SCF3_P5EER3_V1_2_Dynamic.ngb-ss5
#FORMAT:                     ,NETZSCH5
#FTYPE:                      ,ASCII
#IDENTITY:                   ,250821-P5EER3-V1+2
#DECIMAL:                    ,POINT
#SEPARATOR:                  ,COMMA
#MTYPE:                      ,DSC
#INSTRUMENT:                 ,NETZSCH STA 449F5
#PROJECT:                    ,PS-SCF3
#DATE/TIME:                  ,9/7/2025 2:06:17 PM (UTC-4)
#CORR. FILE:                 ,
#TEMPCAL:                    ,05-05-2025 14:38
#SENSITIVITY:                ,28-06-2023 13:53
#LABORATORY:                 ,Tran
#OPERATOR:                   ,Stanley
#REMARK:                     ,2025_03_20_Styrofoam_dynamic
#SAMPLE:                     ,250821-P5EER3-V1+2
#SAMPLE MASS /mg:            ,4.84
#MATERIAL:                   ,Polystyrene
#REFERENCE:                  ,
#REFERENCE MASS /mg:         ,0
#TYPE OF CRUCIBLE:           ,Al2O3 85 ‘l, open
#SAMPLE CRUCIBLE MASS /mg:   ,0
#REFERENCE CRUCIBLE MASS /mg:,0
#DSC RANGE /‘V:              ,5000
#TG RANGE /mg:               ,35000
#TAU-R:                      ,---
#CORR. CODE:                 ,000
#EXO:                        ,-1
#RANGE:                      ,20›C....800›C/0.0....20.0K/min
#SEGMENT:                    ,S1-4/4
#SEG. 1:                     ,20›C/5.0(K/min)/100›C
#SEG. 2:                     ,100›C/00:05/100›C
#SEG. 3:                     ,100›C/1.0(K/min)/400›C
#SEG. 4:                     ,400›C/20.0(K/min)/800›C

##Temp./›C,Time/min,DSC/(mW/mg),Mass/%,Gas Flow(purge2)/(ml/min),Gas Flow(protective)/(ml/min),TIC(scan:1)/A,Sensit./(uV/mW),Segment
 30.33600,  0.00000,      1.28582,    100,50.00000,37.00000,            ,0.92362,1
 39.45100,  5.00000,      0.14843,     89.55847,50.00000,33.00000,7.225091e-09,0.92465,1
 58.12100, 10.00000,      1.12446,     91.92872,50.00000,34.00000,7.229688e-09,0.92491,1
 89.33900, 15.00000,      1.47708,     92.92211,50.00000,34.00000,7.256342e-09,0.92520,1
106.228, 19.00000,      0.52962,     91.17376,50.00000,34.00000,7.244578e-09,0.92568,2
107.558, 23.33333,-3.053152e-02,     89.41591,50.00000,34.00000,7.259877e-09,0.92612,3
107.859, 28.33333, 9.366175e-02,     88.90640,50.00000,34.00000,7.232296e-09,0.92607,3
111.489, 33.33333,      0.23907,     88.82686,50.00000,34.00000,7.238165e-09,0.92511,3
116.59, 38.33333,      0.28148,     88.71467,50.00000,34.00000,7.246903e-09,0.92318,3
121.829, 43.33333,      0.28067,     88.60021,50.00000,34.00000,7.261580e-09,0.92104,3
126.907, 48.33333,      0.27902,     88.52996,50.00000,34.00000,7.251168e-09,0.91977,3
131.92, 53.33333,      0.27999,     88.49504,50.00000,34.00000,7.241117e-09,0.91908,3
136.91, 58.33333,      0.28256,     88.52293,50.00000,34.00000,7.239184e-09,0.91892,3
141.925, 63.33333,      0.28292,     88.54876,50.00000,34.00000,7.241703e-09,0.91900,3
146.935, 68.33333,      0.28315,     88.59070,50.00000,34.00000,7.258133e-09,0.91908,3
151.949, 73.33333,      0.27957,     88.64690,50.00000,34.00000,7.255782e-09,0.91903,3
156.953, 78.33333,      0.27653,     88.70289,50.00000,34.00000,7.249149e-09,0.91879,3
161.956, 83.33333,      0.27087,     88.76612,50.00000,34.00000,7.225612e-09,0.91840,3
166.962, 88.33333,      0.26361,     88.78017,50.00000,34.00000,7.251755e-09,0.91788,3
171.953, 93.33333,      0.25563,     88.83161,50.00000,34.00000,7.242651e-09,0.91727,3
176.936, 98.33333,      0.24478,     88.87128,50.00000,34.00000,7.225398e-09,0.91659,3
181.94,103.333,      0.23406,     88.87128,50.00000,34.00000,7.236066e-09,0.91591,3
186.948,108.333,      0.22347,     88.90640,50.00000,34.00000,7.248426e-09,0.91517,3
191.951,113.333,      0.21048,     88.79421,50.00000,34.00000,7.242913e-09,0.91445,3
196.953,118.333,      0.19580,     88.72872,50.00000,34.00000,7.240313e-09,0.91369,3
201.945,123.333,      0.18173,     88.63760,50.00000,34.00000,7.238292e-09,0.91292,3
206.941,128.333,      0.16721,     88.49731,50.00000,34.00000,7.248864e-09,0.91215,3
211.946,133.333,      0.15221,     88.32893,50.00000,34.00000,7.217577e-09,0.91135,3
216.946,138.333,      0.13416,     88.15372,50.00000,34.00000,7.230691e-09,0.91056,3
221.956,143.333,      0.12223,     87.95496,50.00000,34.00000,7.234149e-09,0.90972,3
226.94,148.333,      0.10428,     87.70021,50.00000,34.00000,7.232112e-09,0.90885,3
231.933,153.333, 8.262423e-02,     87.43140,50.00000,34.00000,7.232667e-09,0.90801,3
236.928,158.333, 5.497466e-02,     87.18822,50.00000,34.00000,7.221734e-09,0.90710,3
241.932,163.333, 3.250865e-02,     86.87045,50.00000,34.00000,7.223627e-09,0.90621,3
246.944,168.333, 5.288032e-03,     86.52438,50.00000,34.00000,7.224811e-09,0.90527,3
251.928,173.333,-2.239907e-02,     86.19483,50.00000,34.00000,7.237347e-09,0.90435,3
256.931,178.333,-5.151954e-02,     85.77417,50.00000,34.00000,7.228044e-09,0.90337,3
261.939,183.333,-8.229375e-02,     85.40248,50.00000,34.00000,7.224310e-09,0.90237,3
266.941,188.333,     -0.11533,     84.92087,50.00000,34.00000,7.213381e-09,0.90139,3
271.92,193.333,     -0.15242,     84.45103,50.00000,34.00000,7.215723e-09,0.90035,3
276.936,198.333,     -0.18154,     83.93450,50.00000,34.00000,7.213316e-09,0.89934,3
281.929,203.333,     -0.21609,     83.37831,50.00000,34.00000,7.213292e-09,0.89827,3
286.922,208.333,     -0.25164,     82.77748,50.00000,34.00000,7.214165e-09,0.89723,3
291.918,213.333,     -0.28940,     82.20475,50.00000,34.00000,7.209074e-09,0.89612,3
296.909,218.333,     -0.32840,     81.58760,50.00000,34.00000,7.214208e-09,0.89499,3
301.916,223.333,     -0.36929,     80.96364,50.00000,34.00000,7.204478e-09,0.89390,3
306.905,228.333,     -0.41046,     80.33244,50.00000,34.00000,7.205142e-09,0.89274,3
311.933,233.333,     -0.45074,     79.65702,50.00000,34.00000,7.201401e-09,0.89160,3
316.936,238.333,     -0.49295,     79.01178,50.00000,34.00000,7.185114e-09,0.89042,3
321.932,243.333,     -0.53897,     78.30826,50.00000,34.00000,7.193658e-09,0.88925,3
326.926,248.333,     -0.57936,     77.64442,50.00000,34.00000,7.190370e-09,0.88804,3
331.927,253.333,     -0.62153,     76.86591,50.00000,34.00000,7.176841e-09,0.88685,3
336.938,258.333,     -0.66256,     76.11343,50.00000,34.00000,7.187150e-09,0.88559,3
341.937,263.333,     -0.70454,     75.16426,50.00000,34.00000,7.193865e-09,0.88437,3
346.917,268.333,     -0.74810,     74.05868,50.00000,34.00000,7.200131e-09,0.88308,3
351.914,273.333,     -0.78967,     72.63512,50.00000,34.00000,7.181852e-09,0.88178,3
356.91,278.333,     -0.83587,     70.69979,50.00000,34.00000,7.175406e-09,0.88050,3
361.92,283.333,     -0.87575,     67.89711,50.00000,34.00000,7.195065e-09,0.87918,3
366.909,288.333,     -0.90306,     63.78306,50.00000,34.00000,7.178133e-09,0.87787,3
371.911,293.333,     -0.92744,     57.67541,50.00000,34.00000,7.163104e-09,0.87651,3
376.921,298.333,     -0.95391,     48.83740,50.00000,34.00000,7.172037e-09,0.87513,3
381.912,303.333,     -1.00712,     37.68285,50.00000,34.00000,7.168146e-09,0.87379,3
386.919,308.333,     -1.12211,     25.22417,50.00000,34.00000,7.153561e-09,0.87244,3
391.926,313.333,     -1.31764,     13.87810,50.00000,34.00000,7.160443e-09,0.87103,3
396.921,318.333,     -1.53161,      5.88140,50.00000,34.00000,7.164454e-09,0.86960,3
399.843,321.175,     -1.60975,      2.84752,50.00000,34.00000,7.163551e-09,0.86884,4
[...]
473.058,325.3,      4.39395,     -2.32066,50.00000,34.00000,7.152375e-09,0.86761,4
480.826,325.675,      4.27241,     -2.73678,50.00000,34.00000,7.153107e-09,0.86752,4
488.696,326.05,      4.19019,     -2.97521,50.00000,34.00000,7.151814e-09,0.86743,4
496.624,326.425,      4.10607,     -3.03140,50.00000,34.00000,7.168822e-09,0.86729,4
504.541,326.8,      3.98851,     -3.03140,50.00000,34.00000,7.155776e-09,0.86718,4
512.425,327.175,      3.84806,     -3.00331,50.00000,34.00000,7.149126e-09,0.86709,4
520.303,327.55,      3.70559,     -3.03140,50.00000,34.00000,7.153421e-09,0.86700,4
528.155,327.925,      3.56614,     -2.97521,50.00000,34.00000,7.165674e-09,0.86690,4
535.987,328.3,      3.41824,     -2.92603,50.00000,34.00000,7.169344e-09,0.86675,4
543.827,328.675,      3.26818,     -2.80227,50.00000,34.00000,7.162708e-09,0.86666,4
551.619,329.05,      3.11438,     -2.74607,50.00000,34.00000,7.161818e-09,0.86655,4
559.381,329.425,      2.96981,     -2.73202,50.00000,34.00000,7.159103e-09,0.86646,4
567.164,329.8,      2.82203,     -2.67603,50.00000,34.00000,7.154764e-09,0.86636,4
574.923,330.175,      2.67516,     -2.61281,50.00000,34.00000,7.156525e-09,0.86622,4
582.661,330.55,      2.52849,     -2.52645,50.00000,34.00000,7.166697e-09,0.86612,4
590.377,330.925,      2.37547,     -2.50062,50.00000,34.00000,7.169501e-09,0.86601,4
598.077,331.3,      2.23214,     -2.41653,50.00000,34.00000,7.158632e-09,0.86591,4
605.764,331.675,      2.09386,     -2.34649,50.00000,34.00000,7.159028e-09,0.86577,4
613.447,332.05,      1.96473,     -2.27624,50.00000,34.00000,7.149314e-09,0.86567,4
621.108,332.425,      1.83514,     -2.22025,50.00000,34.00000,7.153318e-09,0.86557,4
628.764,332.8,      1.71246,     -2.13368,50.00000,34.00000,7.155232e-09,0.86547,4
636.39,333.175,      1.58899,     -2.13368,50.00000,34.00000,7.164808e-09,0.86538,4
644.035,333.55,      1.47007,     -2.04959,50.00000,34.00000,7.150545e-09,0.86522,4
651.658,333.925,      1.34718,     -1.99339,50.00000,34.00000,7.160291e-09,0.86513,4
659.275,334.3,      1.22871,     -1.93740,50.00000,34.00000,7.160518e-09,0.86504,4
666.875,334.675,      1.11422,     -1.88120,50.00000,34.00000,7.151897e-09,0.86493,4
674.484,335.05,      0.99249,     -1.80888,50.00000,34.00000,7.164527e-09,0.86483,4
682.07,335.425,      0.86785,     -1.74566,50.00000,34.00000,7.142158e-09,0.86468,4
689.662,335.8,      0.73135,     -1.66860,50.00000,34.00000,7.145939e-09,0.86459,4
697.243,336.175,      0.60022,     -1.64050,50.00000,34.00000,7.162877e-09,0.86449,4
704.837,336.55,      0.46326,     -1.59132,50.00000,34.00000,7.143667e-09,0.86438,4
712.43,336.925,      0.31024,     -1.53533,50.00000,34.00000,7.157718e-09,0.86430,4
720.021,337.3,      0.13393,     -1.45124,50.00000,34.00000,7.145550e-09,0.86415,4
727.595,337.675,-5.081702e-02,     -1.39504,50.00000,34.00000,7.150863e-09,0.86404,4
735.166,338.05,     -0.24646,     -1.36467,50.00000,34.00000,7.166947e-09,0.86394,4
742.769,338.425,     -0.45419,     -1.30868,50.00000,34.00000,7.156570e-09,0.86385,4
750.369,338.8,     -0.69931,     -1.28058,50.00000,34.00000,7.153612e-09,0.86369,4
757.945,339.175,     -0.96511,     -1.20331,50.00000,34.00000,7.147339e-09,0.86359,4
765.533,339.55,     -1.24788,     -1.13326,50.00000,34.00000,7.158177e-09,0.86350,4
773.079,339.925,     -1.53749,     -1.07479,50.00000,34.00000,7.148562e-09,0.86340,4
780.638,340.3,     -1.83482,     -1.01880,50.00000,34.00000,7.161157e-09,0.86330,4
788.198,340.675,     -2.13648,     -0.99070,50.00000,34.00000,7.148474e-09,0.86315,4
794.742,341,     -2.39943,     -0.93450,50.00000,34.00000,            ,0.44699,4

File: ExpDat_2025_09_08_SL_PS_Container-SCF3_Dynamic_P5EER5_V1_2.csv
#EXPORTTYPE:                 ,DATA ALL
#FILE:                       ,2025_09_08_SL_PS_Container-SCF3_Dynamic_P5EER5_V1_2.ngb-ss5
#FORMAT:                     ,NETZSCH5
#FTYPE:                      ,ASCII
#IDENTITY:                   ,P5EER5_V1+2
#DECIMAL:                    ,POINT
#SEPARATOR:                  ,COMMA
#MTYPE:                      ,DSC
#INSTRUMENT:                 ,NETZSCH STA 449F5
#PROJECT:                    ,PS-SCF3
#DATE/TIME:                  ,9/8/2025 4:49:01 PM (UTC-4)
#CORR. FILE:                 ,
#TEMPCAL:                    ,05-05-2025 14:38
#SENSITIVITY:                ,28-06-2023 13:53
#LABORATORY:                 ,Tran
#OPERATOR:                   ,Stanley
#REMARK:                     ,2025_03_20_Styrofoam_dynamic
#SAMPLE:                     ,P5EER5_V1+2
#SAMPLE MASS /mg:            ,4.63
#MATERIAL:                   ,Polystyrene
#REFERENCE:                  ,
#REFERENCE MASS /mg:         ,0
#TYPE OF CRUCIBLE:           ,Al2O3 85 ‘l, open
#SAMPLE CRUCIBLE MASS /mg:   ,0
#REFERENCE CRUCIBLE MASS /mg:,0
#DSC RANGE /‘V:              ,5000
#TG RANGE /mg:               ,35000
#TAU-R:                      ,---
#CORR. CODE:                 ,000
#EXO:                        ,-1
#RANGE:                      ,20›C....800›C/0.0....20.0K/min
#SEGMENT:                    ,S1-4/4
#SEG. 1:                     ,20›C/5.0(K/min)/100›C
#SEG. 2:                     ,100›C/00:05/100›C
#SEG. 3:                     ,100›C/1.0(K/min)/400›C
#SEG. 4:                     ,400›C/20.0(K/min)/800›C

##Temp./›C,Time/min,DSC/(mW/mg),Mass/%,Gas Flow(purge2)/(ml/min),Gas Flow(protective)/(ml/min),TIC(scan:1)/A,Sensit./(uV/mW),Segment
 38.58900,  0.00000,      3.10036,    100,50.00000,38.00000,            ,0.92490,1
 53.67300,  5.00000,-5.248855e-02,     85.19719,50.00000,34.00000,6.883474e-09,0.92603,1
 52.75500, 10.00000,      0.33220,     85.66393,50.00000,34.00000,6.907893e-09,0.92613,1
 80.15700, 15.00000,      1.60454,     89.92786,50.00000,34.00000,6.935572e-09,0.92610,1
102.296, 19.00000,      0.87328,     89.01145,50.00000,34.00000,6.929672e-09,0.92604,2
107.17, 23.33333,      0.11474,     87.43801,50.00000,34.00000,6.954463e-09,0.92602,3
108.311, 28.33333,      0.11173,     87.14968,50.00000,34.00000,6.938972e-09,0.92619,3
111.719, 33.33333,      0.24060,     87.21555,50.00000,34.00000,6.946723e-09,0.92600,3
116.623, 38.33333,      0.29048,     87.31080,50.00000,34.00000,6.937248e-09,0.92472,3
121.827, 43.33333,      0.29178,     87.33780,50.00000,34.00000,6.947948e-09,0.92267,3
126.927, 48.33333,      0.28590,     87.37927,50.00000,34.00000,6.955449e-09,0.92107,3
131.944, 53.33333,      0.28111,     87.47711,50.00000,34.00000,6.943274e-09,0.91995,3
136.946, 58.33333,      0.27796,     87.52354,50.00000,34.00000,6.942657e-09,0.91939,3
141.944, 63.33333,      0.27611,     87.65529,50.00000,34.00000,6.937007e-09,0.91912,3
146.959, 68.33333,      0.27758,     87.74082,50.00000,34.00000,6.934325e-09,0.91902,3
151.954, 73.33333,      0.27268,     87.87041,50.00000,34.00000,6.937574e-09,0.91890,3
156.971, 78.33333,      0.27257,     88.02678,50.00000,34.00000,6.931152e-09,0.91867,3
161.967, 83.33333,      0.26935,     88.12203,50.00000,34.00000,6.943754e-09,0.91829,3
166.975, 88.33333,      0.26726,     88.25162,50.00000,34.00000,6.946786e-09,0.91783,3
171.96, 93.33333,      0.26315,     88.37862,50.00000,34.00000,6.943176e-09,0.91724,3
176.936, 98.33333,      0.25737,     88.49352,50.00000,34.00000,6.940840e-09,0.91661,3
181.938,103.333,      0.24859,     88.55464,50.00000,34.00000,6.935039e-09,0.91592,3
186.947,108.333,      0.24015,     88.69633,50.00000,34.00000,6.933211e-09,0.91522,3
191.947,113.333,      0.22642,     88.73045,50.00000,34.00000,6.934159e-09,0.91447,3
196.947,118.333,      0.21430,     88.86501,50.00000,34.00000,6.925902e-09,0.91374,3
201.944,123.333,      0.19945,     88.96026,50.00000,34.00000,6.929985e-09,0.91296,3
206.951,128.333,      0.18545,     89.06285,50.00000,34.00000,6.917338e-09,0.91221,3
211.957,133.333,      0.16542,     89.15335,50.00000,34.00000,6.922568e-09,0.91140,3
216.946,138.333,      0.14888,     89.22894,50.00000,34.00000,6.928988e-09,0.91061,3
221.949,143.333,      0.12893,     89.31706,50.00000,34.00000,6.904523e-09,0.90976,3
226.944,148.333,      0.10862,     89.36350,50.00000,34.00000,6.916091e-09,0.90893,3
231.928,153.333, 8.870572e-02,     89.46112,50.00000,34.00000,6.931825e-09,0.90805,3
236.939,158.333, 6.724232e-02,     89.53931,50.00000,34.00000,6.922276e-09,0.90719,3
241.93,163.333, 5.048350e-02,     89.59546,50.00000,34.00000,6.915363e-09,0.90626,3
246.939,168.333, 2.625729e-02,     89.65421,50.00000,34.00000,6.924957e-09,0.90536,3
251.933,173.333, 2.778066e-03,     89.65421,50.00000,34.00000,6.929467e-09,0.90441,3
256.919,178.333,-1.675508e-02,     89.71771,50.00000,34.00000,6.927374e-09,0.90346,3
261.939,183.333,-3.990497e-02,     89.75918,50.00000,34.00000,6.919928e-09,0.90246,3
266.931,188.333,-6.310301e-02,     89.73002,50.00000,35.00000,6.932438e-09,0.90148,3
271.93,193.333,-8.655759e-02,     89.71037,50.00000,35.00000,6.915099e-09,0.90049,3
276.933,198.333,     -0.11313,     89.71274,50.00000,35.00000,6.927737e-09,0.89944,3
281.927,203.333,     -0.14185,     89.69093,50.00000,35.00000,6.927479e-09,0.89841,3
286.919,208.333,     -0.17338,     89.64687,50.00000,35.00000,6.911189e-09,0.89732,3
291.924,213.333,     -0.20611,     89.58812,50.00000,35.00000,6.917838e-09,0.89625,3
296.923,218.333,     -0.24152,     89.54428,50.00000,35.00000,6.906373e-09,0.89514,3
301.932,223.333,     -0.27715,     89.37797,50.00000,35.00000,6.926771e-09,0.89404,3
306.913,228.333,     -0.31321,     89.25832,50.00000,35.00000,6.912182e-09,0.89288,3
311.925,233.333,     -0.35015,     89.06782,50.00000,35.00000,6.922241e-09,0.89176,3
316.923,238.333,     -0.38733,     88.77948,50.00000,35.00000,6.911907e-09,0.89057,3
321.93,243.333,     -0.42176,     88.41771,50.00000,35.00000,6.913484e-09,0.88941,3
326.93,248.333,     -0.46094,     87.97797,50.00000,35.00000,6.921822e-09,0.88820,3
331.939,253.333,     -0.49497,     87.31814,50.00000,35.00000,6.915214e-09,0.88701,3
336.929,258.333,     -0.53358,     86.44341,50.00000,35.00000,6.914062e-09,0.88577,3
341.929,263.333,     -0.56543,     85.23153,50.00000,35.00000,6.901063e-09,0.88449,3
346.914,268.333,     -0.59811,     83.46976,50.00000,35.00000,6.915345e-09,0.88325,3
351.937,273.333,     -0.63370,     80.93326,50.00000,36.00000,6.908912e-09,0.88195,3
356.916,278.333,     -0.64343,     77.26328,50.00000,36.00000,6.922218e-09,0.88068,3
361.928,283.333,     -0.59313,     71.80691,50.00000,36.00000,6.910633e-09,0.87935,3
366.937,288.333,     -0.60888,     64.45680,50.00000,36.00000,6.910126e-09,0.87804,3
371.924,293.333,     -0.63924,     54.52160,50.00000,36.00000,6.912990e-09,0.87674,3
376.92,298.333,     -0.69055,     41.98898,50.00000,36.00000,6.913486e-09,0.87536,3
381.922,303.333,     -0.80059,     28.23434,50.00000,36.00000,6.901759e-09,0.87398,3
386.917,308.333,     -0.98829,     15.44039,50.00000,36.00000,6.905525e-09,0.87262,3
391.918,313.333,     -1.23122,      5.92786,50.00000,36.00000,6.912130e-09,0.87126,3
396.916,318.333,     -1.49610,      0.43715,50.00000,36.00000,6.912726e-09,0.86984,3
399.832,321.175,     -1.61566,     -1.23909,50.00000,36.00000,6.907484e-09,0.86903,4
[...]
473.086,325.3,      4.70255,     -1.24644,50.00000,36.00000,6.921275e-09,0.86786,4
480.853,325.675,      4.64234,     -1.21706,50.00000,36.00000,6.906377e-09,0.86776,4
488.73,326.05,      4.62252,     -1.12916,50.00000,36.00000,6.908488e-09,0.86762,4
496.645,326.425,      4.59056,     -1.03866,50.00000,36.00000,6.914223e-09,0.86753,4
504.568,326.8,      4.50846,     -0.96285,50.00000,36.00000,6.927239e-09,0.86743,4
512.444,327.175,      4.39151,     -0.90432,50.00000,36.00000,6.906354e-09,0.86732,4
520.301,327.55,      4.26955,     -0.83089,50.00000,36.00000,6.913882e-09,0.86723,4
528.148,327.925,      4.15382,     -0.73326,50.00000,36.00000,6.927941e-09,0.86709,4
535.99,328.3,      4.03552,     -0.66717,50.00000,36.00000,6.926421e-09,0.86700,4
543.814,328.675,      3.91400,     -0.60864,50.00000,36.00000,6.918539e-09,0.86689,4
551.627,329.05,      3.78814,     -0.52052,50.00000,36.00000,6.930411e-09,0.86680,4
559.4,329.425,      3.65281,     -0.49136,50.00000,36.00000,6.920579e-09,0.86670,4
567.17,329.8,      3.52100,     -0.40324,50.00000,36.00000,6.913145e-09,0.86655,4
574.924,330.175,      3.39760,     -0.34471,50.00000,36.00000,6.912277e-09,0.86646,4
582.673,330.55,      3.26617,     -0.28596,50.00000,36.00000,6.917221e-09,0.86635,4
590.397,330.925,      3.12893,     -0.19568,50.00000,36.00000,6.914786e-09,0.86625,4
598.081,331.3,      2.98794,     -0.12225,50.00000,36.00000,6.911642e-09,0.86617,4
605.762,331.675,      2.85721,-4.902808e-02,50.00000,36.00000,6.925882e-09,0.86602,4
613.435,332.05,      2.72433, 2.419006e-02,50.00000,36.00000,6.928742e-09,0.86592,4
621.089,332.425,      2.59433, 7.062635e-02,50.00000,36.00000,6.916787e-09,0.86582,4
628.744,332.8,      2.46016,      0.12937,50.00000,36.00000,6.908779e-09,0.86572,4
636.374,333.175,      2.32303,      0.21728,50.00000,36.00000,6.903849e-09,0.86557,4
643.999,333.55,      2.17755,      0.24665,50.00000,36.00000,6.907732e-09,0.86547,4
651.613,333.925,      2.04687,      0.30518,50.00000,36.00000,6.936777e-09,0.86538,4
659.243,334.3,      1.91781,      0.36393,50.00000,36.00000,6.916942e-09,0.86528,4
666.869,334.675,      1.80027,      0.45184,50.00000,36.00000,6.904703e-09,0.86518,4
674.481,335.05,      1.65193,      0.48121,50.00000,36.00000,6.902188e-09,0.86504,4
682.067,335.425,      1.49215,      0.56911,50.00000,36.00000,6.908069e-09,0.86494,4
689.671,335.8,      1.35402,      0.62786,50.00000,36.00000,6.923926e-09,0.86483,4
697.273,336.175,      1.20866,      0.68639,50.00000,36.00000,6.933491e-09,0.86474,4
704.858,336.55,      1.04237,      0.71577,50.00000,36.00000,6.919423e-09,0.86458,4
712.453,336.925,      0.88390,      0.80367,50.00000,36.00000,6.907814e-09,0.86447,4
720.035,337.3,      0.70967,      0.83305,50.00000,36.00000,6.920606e-09,0.86437,4
727.614,337.675,      0.52741,      0.89179,50.00000,36.00000,6.911840e-09,0.86428,4
735.184,338.05,      0.32546,      0.95032,50.00000,36.00000,6.932203e-09,0.86418,4
742.761,338.425,      0.10981,      0.97970,50.00000,36.00000,6.915660e-09,0.86404,4
750.341,338.8,     -0.11764,      1.04557,50.00000,36.00000,6.905609e-09,0.86394,4
757.897,339.175,     -0.37279,      1.10432,50.00000,36.00000,6.927988e-09,0.86384,4
765.511,339.55,     -0.62350,      1.16285,50.00000,36.00000,6.910048e-09,0.86374,4
773.077,339.925,     -0.91263,      1.22160,50.00000,36.00000,6.925615e-09,0.86364,4
780.642,340.3,     -1.20820,      1.28013,50.00000,36.00000,6.911542e-09,0.86349,4
788.191,340.675,     -1.49783,      1.30216,50.00000,36.00000,6.911081e-09,0.86338,4
794.745,341,     -1.75770,      1.36091,50.00000,36.00000,            ,0.44699,4