Folder: data-visualizer/data/TGA/commercial_samples (part 5)

File: ExpDat_2025_08_14_SL_PS_Blue_Cup_Dynamic.csv
#EXPORTTYPE:                 ,DATA ALL
#FILE:                       ,2025_08_14_SL_PS_Blue_Cup_Dynamic.ngb-ss5
#FORMAT:                     ,NETZSCH5
#FTYPE:                      ,ASCII
#IDENTITY:                   ,PS-Blue-Cup
#DECIMAL:                    ,POINT
#SEPARATOR:                  ,COMMA
#MTYPE:                      ,TG
#INSTRUMENT:                 ,NETZSCH STA 449F5
#PROJECT:                    ,
#DATE/TIME:                  ,8/14/2025 8:52:56 AM (UTC-4)
#CORR. FILE:                 ,
#TEMPCAL:                    ,05-05-2025 14:38
#SENSITIVITY:                ,28-06-2023 13:53
#LABORATORY:                 ,Tran/AAG
#OPERATOR:                   ,Stanley
#REMARK:                     ,2025_03_20_Styrofoam_dynamic
#SAMPLE:                     ,PS-Blue-Cup
#SAMPLE MASS /mg:            ,4.75
#MATERIAL:                   ,Polystyrene
#REFERENCE:                  ,
#REFERENCE MASS /mg:         ,0
#TYPE OF CRUCIBLE:           ,Al2O3 85 ‘l, open
#SAMPLE CRUCIBLE MASS /mg:   ,0
#REFERENCE CRUCIBLE MASS /mg:,0
#DSC RANGE /‘V:              ,5000
#TG RANGE /mg:               ,35000
#TAU-R:                      ,---
#CORR. CODE:                 ,000
#EXO:                        ,-1
#RANGE:                      ,20›C....800›C/0.0....20.0K/min
#SEGMENT:                    ,S1-4/4
#SEG. 1:                     ,20›C/5.0(K/min)/100›C
#SEG. 2:                     ,100›C/00:05/100›C
#SEG. 3:                     ,100›C/1.0(K/min)/400›C
#SEG. 4:                     ,400›C/20.0(K/min)/800›C

##Temp./›C,Time/min,Mass/%,Sensit./(uV/mW),Segment
 28.87700,  0.00000,    100,0.92334,1
 33.18300,  2.40000,     90.86105,0.92411,1
 37.00700,  4.80000,     91.10400,0.92469,1
 45.53800,  7.20000,     92.05432,0.92565,1
 58.14000,  9.60000,     93.04526,0.92620,1
 72.67000, 12.00000,     93.65726,0.92560,1
 87.35300, 14.40000,     93.91453,0.92369,1
100.012, 16.58417,     93.85495,0.92102,2
105.569, 18.38417,     92.52126,0.91957,2
107.771, 20.18417,     91.65432,0.91894,2
107.665, 22.33417,     90.74211,0.91897,3
107.205, 24.73417,     90.30611,0.91910,3
107.328, 27.13417,     90.13474,0.91907,3
108.384, 29.53417,     90.09895,0.91876,3
110.205, 31.93417,     90.03474,0.91822,3
112.49, 34.33417,     90.00611,0.91751,3
114.985, 36.73417,     89.98463,0.91670,3
117.518, 39.13417,     89.92737,0.91585,3
120.058, 41.53417,     89.85600,0.91496,3
122.538, 43.93417,     89.85600,0.91406,3
124.968, 46.33417,     89.82989,0.91315,3
127.406, 48.73417,     89.85832,0.91220,3
129.819, 51.13417,     89.82737,0.91123,3
132.232, 53.53417,     89.85832,0.91023,3
134.607, 55.93417,     89.89179,0.90922,3
137.015, 58.33417,     89.91326,0.90817,3
139.423, 60.73417,     89.94884,0.90709,3
141.824, 63.13417,     90.02042,0.90598,3
144.212, 65.53417,     90.07032,0.90485,3
146.632, 67.93417,     90.12758,0.90368,3
149.027, 70.33417,     90.20611,0.90249,3
151.424, 72.73417,     90.24189,0.90128,3
153.821, 75.13417,     90.29432,0.90004,3
156.236, 77.53417,     90.34421,0.89876,3
158.637, 79.93417,     90.42042,0.89746,3
161.051, 82.33417,     90.48232,0.89613,3
163.452, 84.73417,     90.54674,0.89479,3
165.856, 87.13417,     90.58484,0.89341,3
168.243, 89.53417,     90.66337,0.89202,3
170.641, 91.93417,     90.71347,0.89060,3
173.04, 94.33417,     90.76337,0.88916,3
175.431, 96.73417,     90.83726,0.88770,3
177.823, 99.13417,     90.88968,0.88621,3
180.239,101.534,     90.92547,0.88468,3
182.632,103.934,     90.98737,0.88315,3
185.044,106.334,     91.04442,0.88158,3
187.444,108.734,     91.06126,0.88000,3
189.847,111.134,     91.10400,0.87839,3
192.228,113.534,     91.08253,0.87678,3
194.631,115.934,     91.16842,0.87513,3
197.038,118.334,     91.19221,0.87346,3
199.431,120.734,     91.24211,0.87177,3
201.836,123.134,     91.29221,0.87006,3
204.248,125.534,     91.31368,0.86832,3
206.638,127.934,     91.37074,0.86658,3
209.043,130.334,     91.39937,0.86481,3
211.44,132.734,     91.45663,0.86303,3
213.841,135.134,     91.46379,0.86123,3
216.241,137.534,     91.45663,0.85940,3
218.637,139.934,     91.48505,0.85757,3
221.036,142.334,     91.49474,0.85571,3
223.425,144.734,     91.52316,0.85385,3
225.83,147.134,     91.55895,0.85195,3
228.228,149.534,     91.52800,0.85005,3
230.619,151.934,     91.54232,0.84813,3
233.025,154.334,     91.54232,0.84619,3
235.43,156.734,     91.55663,0.84423,3
237.814,159.134,     91.54716,0.84228,3
240.22,161.534,     91.52568,0.84029,3
242.613,163.934,     91.51137,0.83830,3
245.038,166.334,     91.52084,0.83627,3
247.422,168.734,     91.51368,0.83425,3
249.822,171.134,     91.44695,0.83222,3
252.222,173.534,     91.45411,0.83017,3
254.606,175.934,     91.43284,0.82812,3
257.022,178.334,     91.44695,0.82603,3
259.424,180.734,     91.38042,0.82394,3
261.813,183.134,     91.35179,0.82185,3
264.221,185.534,     91.33032,0.81974,3
266.624,187.934,     91.29453,0.81761,3
269.021,190.334,     91.25895,0.81549,3
271.405,192.734,     91.23516,0.81336,3
273.82,195.134,     91.19705,0.81120,3
276.208,197.534,     91.12547,0.80905,3
278.602,199.934,     91.08968,0.80688,3
281.007,202.334,     91.01832,0.80470,3
283.4,204.734,     90.97537,0.80252,3
285.802,207.134,     90.93263,0.80033,3
288.211,209.534,     90.86358,0.79812,3
290.595,211.934,     90.79916,0.79593,3
293.004,214.334,     90.75642,0.79370,3
295.408,216.734,     90.69916,0.79148,3
297.813,219.134,     90.61347,0.78924,3
300.199,221.534,     90.54189,0.78702,3
302.598,223.934,     90.44905,0.78478,3
304.986,226.334,     90.36337,0.78255,3
307.397,228.734,     90.29179,0.78028,3
309.809,231.134,     90.14905,0.77802,3
312.221,233.534,     90.08000,0.77575,3
314.616,235.934,     89.99411,0.77349,3
317.018,238.334,     89.85832,0.77122,3
319.425,240.734,     89.75116,0.76894,3
321.811,243.134,     89.60126,0.76668,3
324.216,245.534,     89.44400,0.76439,3
326.613,247.934,     89.26295,0.76211,3
329.012,250.334,     89.04147,0.75983,3
331.405,252.734,     88.77705,0.75755,3
333.808,255.134,     88.44126,0.75526,3
336.208,257.534,     88.06021,0.75298,3
338.604,259.934,     87.53853,0.75069,3
341.005,262.334,     86.92653,0.74840,3
343.407,264.734,     86.18800,0.74611,3
345.806,267.134,     85.31874,0.74382,3
348.195,269.534,     84.21600,0.74154,3
350.588,271.934,     82.77495,0.73925,3
352.999,274.334,     81.15305,0.73695,3
355.4,276.734,     79.20947,0.73466,3
357.8,279.134,     76.79684,0.73237,3
360.198,281.534,     73.82674,0.73009,3
362.595,283.934,     70.12316,0.72780,3
364.991,286.334,     65.62632,0.72552,3
367.383,288.734,     60.36968,0.72325,3
369.783,291.134,     54.13432,0.72097,3
372.187,293.534,     47.00084,0.71869,3
374.594,295.934,     39.15305,0.71641,3
377.004,298.334,     30.75495,0.71413,3
379.398,300.734,     22.40442,0.71186,3
381.794,303.134,     14.35874,0.70960,3
384.197,305.534,      7.47558,0.70734,3
386.618,307.934,      2.22379,0.70506,3
389.005,310.334,     -1.31811,0.70282,3
391.413,312.734,     -3.37347,0.70057,3
393.796,315.134,     -4.39284,0.69834,3
396.196,317.534,     -4.90021,0.69610,3
398.591,319.934,     -5.15979,0.69387,3
399.717,321.039,     -5.23832,0.69283,4
400.265,321.219,     -5.17895,0.69232,4
401.532,321.399,     -4.98358,0.69114,4
403.676,321.579,     -4.70484,0.68916,4
406.579,321.759,     -4.42863,0.68648,4
410.002,321.939,     -4.23326,0.68333,4
413.642,322.119,     -4.07600,0.68000,4
[...]
464.714,324.819,     -3.62358,0.63506,4
468.414,324.999,     -3.60211,0.63196,4
472.125,325.179,     -3.58779,0.62887,4
475.849,325.359,     -3.53074,0.62579,4
479.566,325.539,     -3.53074,0.62275,4
483.324,325.719,     -3.45200,0.61970,4
487.076,325.899,     -3.42358,0.61667,4
490.855,326.079,     -3.35916,0.61365,4
494.655,326.259,     -3.33053,0.61065,4
498.431,326.439,     -3.30211,0.60768,4
502.224,326.619,     -3.23768,0.60473,4
505.999,326.799,     -3.20905,0.60182,4
509.779,326.979,     -3.18063,0.59893,4
513.544,327.159,     -3.15200,0.59608,4
517.317,327.339,     -3.09474,0.59326,4
521.08,327.519,     -3.06632,0.59046,4
524.839,327.699,     -3.03768,0.58770,4
528.602,327.879,     -2.98042,0.58496,4
532.361,328.059,     -2.98042,0.58225,4
536.112,328.239,     -2.92337,0.57958,4
539.867,328.419,     -2.89474,0.57693,4
543.602,328.599,     -2.86611,0.57432,4
547.347,328.779,     -2.83747,0.57172,4
551.077,328.959,     -2.78042,0.56917,4
554.801,329.139,     -2.78042,0.56665,4
558.535,329.319,     -2.75179,0.56415,4
562.253,329.499,     -2.69221,0.56168,4
565.965,329.679,     -2.64947,0.55925,4
569.683,329.859,     -2.63516,0.55683,4
573.389,330.039,     -2.59221,0.55445,4
577.092,330.219,     -2.55642,0.55210,4
580.803,330.399,     -2.52084,0.54977,4
584.499,330.579,     -2.49221,0.54747,4
588.189,330.759,     -2.43495,0.54521,4
591.887,330.939,     -2.43495,0.54296,4
595.579,331.119,     -2.37789,0.54074,4
599.264,331.299,     -2.35642,0.53854,4
602.945,331.479,     -2.32063,0.53638,4
606.641,331.659,     -2.26126,0.53423,4
610.315,331.839,     -2.26126,0.53211,4
613.994,332.019,     -2.23263,0.53002,4
617.679,332.199,     -2.17537,0.52794,4
621.354,332.379,     -2.17537,0.52589,4
625.029,332.559,     -2.14695,0.52387,4
628.692,332.739,     -2.10400,0.52187,4
632.351,332.919,     -2.06105,0.51990,4
636.01,333.099,     -2.03263,0.51794,4
639.672,333.279,     -2.00400,0.51601,4
643.33,333.459,     -1.97305,0.51409,4
646.97,333.639,     -1.94442,0.51221,4
650.637,333.819,     -1.91579,0.51033,4
654.283,333.999,     -1.88716,0.50848,4
657.927,334.179,     -1.84442,0.50665,4
661.581,334.359,     -1.81579,0.50483,4
665.224,334.539,     -1.77284,0.50304,4
668.876,334.719,     -1.77284,0.50126,4
672.514,334.899,     -1.74442,0.49950,4
676.162,335.079,     -1.71579,0.49775,4
679.807,335.259,     -1.68716,0.49602,4
683.46,335.439,     -1.65853,0.49430,4
687.099,335.619,     -1.61579,0.49261,4
690.737,335.799,     -1.60147,0.49093,4
694.379,335.979,     -1.57284,0.48926,4
698.023,336.159,     -1.54421,0.48760,4
701.659,336.339,     -1.51579,0.48596,4
705.304,336.519,     -1.49432,0.48433,4
708.946,336.699,     -1.45853,0.48271,4
712.592,336.879,     -1.42989,0.48110,4
716.226,337.059,     -1.40126,0.47951,4
719.868,337.239,     -1.37284,0.47793,4
723.494,337.419,     -1.35137,0.47636,4
727.132,337.599,     -1.31558,0.47480,4
730.773,337.779,     -1.31558,0.47324,4
734.42,337.959,     -1.28695,0.47170,4
738.06,338.139,     -1.25853,0.47016,4
741.689,338.319,     -1.22989,0.46864,4
745.322,338.499,     -1.20126,0.46712,4
748.954,338.679,     -1.14421,0.46561,4
752.59,338.859,     -1.14421,0.46410,4
756.225,339.039,     -1.11558,0.46260,4
759.859,339.219,     -1.02505,0.46111,4
763.501,339.399,     -1.05368,0.45962,4
767.135,339.579,     -1.05368,0.45814,4
770.774,339.759,     -0.99642,0.45666,4
774.398,339.939,     -0.99642,0.45519,4
778.017,340.119,     -0.96779,0.45373,4
781.647,340.299,     -0.91074,0.45226,4
785.279,340.479,     -0.91074,0.45080,4
788.911,340.659,     -0.88211,0.44934,4
792.526,340.839,     -0.85347,0.44788,4
794.442,340.934,     -0.85347,0.44711,4

File: ExpDat_2025_08_14_SL_PS_Cup_Lid_dynamic.csv
#EXPORTTYPE:                 ,DATA ALL
#FILE:                       ,2025_08_14_SL_PS_Cup_Lid_dynamic.ngb-ss5
#FORMAT:                     ,NETZSCH5
#FTYPE:                      ,ASCII
#IDENTITY:                   ,PS-Coffee-Lid
#DECIMAL:                    ,POINT
#SEPARATOR:                  ,COMMA
#MTYPE:                      ,TG
#INSTRUMENT:                 ,NETZSCH STA 449F5
#PROJECT:                    ,
#DATE/TIME:                  ,8/14/2025 3:28:47 PM (UTC-4)
#CORR. FILE:                 ,
#TEMPCAL:                    ,05-05-2025 14:38
#SENSITIVITY:                ,28-06-2023 13:53
#LABORATORY:                 ,Tran/AAG
#OPERATOR:                   ,Stanley
#REMARK:                     ,2025_03_20_Styrofoam_dynamic
#SAMPLE:                     ,PS-Coffee-Lid
#SAMPLE MASS /mg:            ,4.46
#MATERIAL:                   ,Polystyrene
#REFERENCE:                  ,
#REFERENCE MASS /mg:         ,0
#TYPE OF CRUCIBLE:           ,Al2O3 85 ‘l, open
#SAMPLE CRUCIBLE MASS /mg:   ,0
#REFERENCE CRUCIBLE MASS /mg:,0
#DSC RANGE /‘V:              ,5000
#TG RANGE /mg:               ,35000
#TAU-R:                      ,---
#CORR. CODE:                 ,000
#EXO:                        ,-1
#RANGE:                      ,20›C....800›C/0.0....20.0K/min
#SEGMENT:                    ,S1-4/4
#SEG. 1:                     ,20›C/5.0(K/min)/100›C
#SEG. 2:                     ,100›C/00:05/100›C
#SEG. 3:                     ,100›C/1.0(K/min)/400›C
#SEG. 4:                     ,400›C/20.0(K/min)/800›C

##Temp./›C,Time/min,Mass/%,Sensit./(uV/mW),Segment
 34.86300,  0.00000,    100,0.92438,1
 47.02400,  2.40000,     85.69327,0.92576,1
 48.81900,  4.80000,     84.71166,0.92589,1
 48.17700,  7.20000,     83.85426,0.92585,1
 52.41500,  9.60000,     85.82780,0.92607,1
 64.12200, 12.00000,     87.91794,0.92611,1
 79.89900, 14.40000,     89.20404,0.92482,1
 95.02300, 16.60000,     89.66323,0.92219,2
102.482, 18.40000,     88.43027,0.92040,2
106.162, 20.20000,     87.59574,0.91940,2
107.16, 22.33333,     86.81951,0.91912,3
107.33, 24.73333,     86.51256,0.91907,3
107.656, 27.13333,     86.39081,0.91897,3
108.699, 29.53333,     86.39843,0.91867,3
110.418, 31.93333,     86.45942,0.91815,3
112.582, 34.33333,     86.51009,0.91748,3
114.994, 36.73333,     86.56345,0.91670,3
117.487, 39.13333,     86.57848,0.91586,3
119.989, 41.53333,     86.59372,0.91499,3
122.472, 43.93333,     86.62422,0.91409,3
124.918, 46.33333,     86.66233,0.91317,3
127.333, 48.73333,     86.70785,0.91223,3
129.765, 51.13333,     86.73834,0.91125,3
132.148, 53.53333,     86.78408,0.91027,3
134.532, 55.93333,     86.87534,0.90926,3
136.951, 58.33333,     86.93632,0.90820,3
139.357, 60.73333,     87.00471,0.90712,3
141.755, 63.13333,     87.08094,0.90601,3
144.152, 65.53333,     87.14933,0.90488,3
146.55, 67.93333,     87.21525,0.90372,3
148.964, 70.33333,     87.29148,0.90252,3
151.367, 72.73333,     87.37511,0.90131,3
153.791, 75.13333,     87.45381,0.90005,3
156.171, 77.53333,     87.49170,0.89879,3
158.58, 79.93333,     87.58318,0.89749,3
160.974, 82.33333,     87.64148,0.89618,3
163.377, 84.73333,     87.71749,0.89483,3
165.777, 87.13333,     87.79372,0.89346,3
168.184, 89.53333,     87.83161,0.89206,3
170.588, 91.93333,     87.87982,0.89064,3
172.979, 94.33333,     87.95852,0.88920,3
175.369, 96.73333,     88.01928,0.88773,3
177.776, 99.13333,     88.05493,0.88624,3
180.185,101.533,     88.14619,0.88472,3
182.57,103.933,     88.19193,0.88319,3
184.982,106.333,     88.26794,0.88162,3
187.38,108.733,     88.31368,0.88004,3
189.787,111.133,     88.35179,0.87843,3
192.185,113.533,     88.41256,0.87681,3
194.58,115.933,     88.46592,0.87516,3
196.98,118.333,     88.51906,0.87350,3
199.374,120.733,     88.52668,0.87181,3
201.777,123.133,     88.56480,0.87010,3
204.182,125.533,     88.57735,0.86837,3
206.57,127.933,     88.63072,0.86663,3
208.981,130.333,     88.63834,0.86486,3
211.369,132.733,     88.69170,0.86308,3
213.767,135.133,     88.70673,0.86128,3
216.176,137.533,     88.72197,0.85945,3
218.553,139.933,     88.72960,0.85763,3
220.955,142.333,     88.79821,0.85577,3
223.361,144.733,     88.76771,0.85390,3
225.771,147.133,     88.77287,0.85200,3
228.156,149.533,     88.76525,0.85010,3
230.575,151.933,     88.76525,0.84817,3
232.971,154.333,     88.76771,0.84623,3
235.371,156.733,     88.76009,0.84428,3
237.765,159.133,     88.75247,0.84232,3
240.155,161.533,     88.74484,0.84034,3
242.554,163.933,     88.72960,0.83835,3
244.958,166.333,     88.69910,0.83633,3
247.351,168.733,     88.67646,0.83431,3
249.741,171.133,     88.68901,0.83229,3
252.154,173.533,     88.65852,0.83022,3
254.56,175.933,     88.62063,0.82816,3
256.954,178.333,     88.59776,0.82609,3
259.35,180.733,     88.56726,0.82400,3
261.739,183.133,     88.51413,0.82192,3
264.151,185.533,     88.52915,0.81980,3
266.56,187.933,     88.47354,0.81767,3
268.942,190.333,     88.43296,0.81556,3
271.355,192.733,     88.42018,0.81340,3
273.736,195.133,     88.39731,0.81127,3
276.142,197.533,     88.32130,0.80911,3
278.555,199.933,     88.29843,0.80693,3
280.961,202.333,     88.25269,0.80474,3
283.333,204.733,     88.21973,0.80259,3
285.741,207.133,     88.18924,0.80038,3
288.147,209.533,     88.17422,0.79818,3
290.543,211.933,     88.14126,0.79597,3
292.936,214.333,     88.11839,0.79376,3
295.336,216.733,     88.08789,0.79154,3
297.741,219.133,     88.05740,0.78931,3
300.14,221.533,     88.02691,0.78708,3
302.543,223.933,     88.00673,0.78483,3
304.939,226.333,     87.99148,0.78259,3
307.336,228.733,     87.93812,0.78034,3
309.734,231.133,     87.93318,0.77809,3
312.131,233.533,     87.92556,0.77583,3
314.541,235.933,     87.90269,0.77356,3
316.942,238.333,     87.86457,0.77129,3
319.339,240.733,     87.84439,0.76902,3
321.738,243.133,     87.83677,0.76674,3
324.13,245.533,     87.80628,0.76447,3
326.547,247.933,     87.75314,0.76218,3
328.936,250.333,     87.76076,0.75991,3
331.341,252.733,     87.72265,0.75762,3
333.738,255.133,     87.65404,0.75533,3
336.128,257.533,     87.57803,0.75305,3
338.534,259.933,     87.55516,0.75076,3
340.941,262.333,     87.44865,0.74846,3
343.339,264.733,     87.36502,0.74617,3
345.745,267.133,     87.28117,0.74387,3
348.126,269.533,     87.15179,0.74160,3
350.521,271.933,     87.00717,0.73932,3
352.928,274.333,     86.85516,0.73702,3
355.34,276.733,     86.64193,0.73472,3
357.726,279.133,     86.37309,0.73244,3
360.138,281.533,     86.04596,0.73014,3
362.533,283.933,     85.64753,0.72786,3
364.931,286.333,     85.16816,0.72558,3
367.326,288.733,     84.58229,0.72330,3
369.739,291.133,     83.86682,0.72101,3
372.138,293.533,     82.96637,0.71873,3
374.524,295.933,     81.90359,0.71647,3
376.925,298.333,     80.50336,0.71420,3
379.319,300.733,     78.76323,0.71194,3
381.712,303.133,     76.58677,0.70968,3
384.12,305.533,     73.58857,0.70741,3
386.53,307.933,     69.81143,0.70515,3
388.918,310.333,     65.12623,0.70290,3
391.317,312.733,     59.65717,0.70066,3
393.717,315.133,     53.45516,0.69841,3
396.131,317.533,     46.80426,0.69616,3
398.524,319.933,     39.90695,0.69394,3
399.713,321.1,     36.52578,0.69283,4
400.221,321.28,     36.09955,0.69236,4
401.472,321.46,     35.82309,0.69120,4
403.593,321.64,     35.57197,0.68924,4
406.482,321.82,     35.31323,0.68657,4
409.901,322,     34.87691,0.68342,4
413.559,322.18,     34.30359,0.68007,4
[...]
453.443,324.34,     12.77018,0.64464,4
457.171,324.52,     10.10157,0.64145,4
460.897,324.7,      7.50157,0.63828,4
464.626,324.88,      5.08677,0.63513,4
468.324,325.06,      2.97108,0.63203,4
472.043,325.24,      1.19798,0.62894,4
475.76,325.42,     -0.27332,0.62587,4
479.484,325.6,     -1.50852,0.62282,4
483.253,325.78,     -2.54865,0.61975,4
487.016,325.96,     -3.42892,0.61672,4
490.802,326.14,     -4.14664,0.61370,4
494.605,326.32,     -4.69978,0.61068,4
498.388,326.5,     -5.05740,0.60771,4
502.175,326.68,     -5.34910,0.60477,4
505.952,326.86,     -5.44798,0.60186,4
509.735,327.04,     -5.50897,0.59897,4
513.504,327.22,     -5.50897,0.59611,4
517.272,327.4,     -5.47848,0.59329,4
521.041,327.58,     -5.44798,0.59049,4
524.794,327.76,     -5.42511,0.58773,4
528.55,327.94,     -5.39462,0.58500,4
532.305,328.12,     -5.33386,0.58229,4
536.056,328.3,     -5.30336,0.57962,4
539.796,328.48,     -5.24260,0.57698,4
543.552,328.66,     -5.21211,0.57435,4
547.272,328.84,     -5.18161,0.57178,4
551.015,329.02,     -5.15112,0.56921,4
554.74,329.2,     -5.09036,0.56669,4
558.467,329.38,     -5.02937,0.56419,4
562.174,329.56,     -4.99910,0.56173,4
565.892,329.74,     -4.96592,0.55929,4
569.599,329.92,     -4.90516,0.55689,4
573.312,330.1,     -4.87466,0.55450,4
577.016,330.28,     -4.85179,0.55215,4
580.719,330.46,     -4.81390,0.54982,4
584.407,330.64,     -4.71996,0.54753,4
588.115,330.82,     -4.73520,0.54525,4
591.804,331,     -4.67422,0.54301,4
595.499,331.18,     -4.64395,0.54078,4
599.185,331.36,     -4.58296,0.53859,4
602.858,331.54,     -4.55247,0.53643,4
606.541,331.72,     -4.52220,0.53429,4
610.212,331.9,     -4.46121,0.53217,4
613.89,332.08,     -4.43072,0.53008,4
617.56,332.26,     -4.40045,0.52801,4
621.226,332.44,     -4.36996,0.52596,4
624.905,332.62,     -4.30897,0.52394,4
628.566,332.8,     -4.27870,0.52194,4
632.22,332.98,     -4.24552,0.51997,4
635.882,333.16,     -4.21525,0.51801,4
639.544,333.34,     -4.18475,0.51607,4
643.192,333.52,     -4.17713,0.51416,4
646.845,333.7,     -4.12377,0.51227,4
650.496,333.88,     -4.11614,0.51040,4
654.153,334.06,     -4.08587,0.50855,4
657.803,334.24,     -4.10874,0.50671,4
661.455,334.42,     -4.07825,0.50490,4
665.092,334.6,     -4.06300,0.50310,4
668.744,334.78,     -4.07825,0.50132,4
672.391,334.96,     -4.04776,0.49956,4
676.036,335.14,     -4.04013,0.49781,4
679.684,335.32,     -4.01726,0.49608,4
683.311,335.5,     -4.01726,0.49437,4
686.968,335.68,     -3.95650,0.49267,4
690.606,335.86,     -3.98677,0.49099,4
694.253,336.04,     -3.92601,0.48931,4
697.898,336.22,     -3.92601,0.48766,4
701.541,336.4,     -3.86502,0.48601,4
705.196,336.58,     -3.83475,0.48438,4
708.843,336.76,     -3.79664,0.48276,4
712.477,336.94,     -3.77377,0.48115,4
716.117,337.12,     -3.77377,0.47956,4
719.759,337.3,     -3.68251,0.47797,4
723.395,337.48,     -3.65202,0.47640,4
727.043,337.66,     -3.62152,0.47484,4
730.675,337.84,     -3.59126,0.47329,4
734.32,338.02,     -3.56076,0.47174,4
737.953,338.2,     -3.49978,0.47020,4
741.585,338.38,     -3.46951,0.46868,4
745.229,338.56,     -3.43901,0.46716,4
748.871,338.74,     -3.40852,0.46564,4
752.501,338.92,     -3.34753,0.46414,4
756.133,339.1,     -3.31726,0.46264,4
759.772,339.28,     -3.28677,0.46115,4
763.406,339.46,     -3.23857,0.45966,4
767.045,339.64,     -3.22332,0.45818,4
770.683,339.82,     -3.15740,0.45670,4
774.323,340,     -3.12691,0.45522,4
777.951,340.18,     -3.09641,0.45375,4
781.59,340.36,     -3.05852,0.45228,4
785.229,340.54,     -3.00516,0.45082,4
788.854,340.72,     -2.97466,0.44936,4
792.477,340.9,     -2.94439,0.44790,4
794.487,341,     -2.94439,0.44710,4