Folder: data-visualizer/data/TGA/commercial_samples

File: ExpDat_2025_07_22_SL_PS_Red_Solo_Cup_Dynamic.csv
#EXPORTTYPE:                 ,DATA ALL
#FILE:                       ,2025_07_22_SL_PS_Red_Solo_Cup_Dynamic.ngb-ss5
#FORMAT:                     ,NETZSCH5
#FTYPE:                      ,ASCII
#IDENTITY:                   ,PS-Red-Solo-Cup
#DECIMAL:                    ,POINT
#SEPARATOR:                  ,COMMA
#MTYPE:                      ,DSC
#INSTRUMENT:                 ,NETZSCH STA 449F5
#PROJECT:                    ,
#DATE/TIME:                  ,7/22/2025 5:22:39 PM (UTC-4)
#CORR. FILE:                 ,
#TEMPCAL:                    ,05-05-2025 14:38
#SENSITIVITY:                ,28-06-2023 13:53
#LABORATORY:                 ,Tran/AAG
#OPERATOR:                   ,Stanley
#REMARK:                     ,2025_03_20_Styrofoam_dynamic
#SAMPLE:                     ,PS-Red-Solo-Cup
#SAMPLE MASS /mg:            ,4.63
#MATERIAL:                   ,Polystyrene
#REFERENCE:                  ,
#REFERENCE MASS /mg:         ,0
#TYPE OF CRUCIBLE:           ,Al2O3 85 ‘l, open
#SAMPLE CRUCIBLE MASS /mg:   ,0
#REFERENCE CRUCIBLE MASS /mg:,0
#DSC RANGE /‘V:              ,5000
#TG RANGE /mg:               ,35000
#TAU-R:                      ,---
#CORR. CODE:                 ,000
#EXO:                        ,-1
#RANGE:                      ,20›C....800›C/0.0....20.0K/min
#SEGMENT:                    ,S1-4/4
#SEG. 1:                     ,20›C/5.0(K/min)/100›C
#SEG. 2:                     ,100›C/00:05/100›C
#SEG. 3:                     ,100›C/1.0(K/min)/400›C
#SEG. 4:                     ,400›C/20.0(K/min)/800›C

##Temp./›C,Time/min,DSC/(mW/mg),Mass/%,Gas Flow(purge2)/(ml/min),Gas Flow(protective)/(ml/min),TIC(scan:1)/A,Sensit./(uV/mW),Segment
 28.92000,  0.00000,-5.710747e-03,100,50.00000,41.00000,            ,0.92335,1
 37.01200,  4.80000,-5.007469e-02, 91.46242,50.00000,35.00000,1.706406e-08,0.92401,1
 58.28400,  9.60000,      0.25797, 93.39762,50.00000,35.00000,1.706017e-08,0.92438,1
 87.46400, 14.40000,      0.46865, 94.26263,50.00000,35.00000,1.709307e-08,0.92500,1
105.481, 18.38333,      0.15070, 92.84060,50.00000,35.00000,1.707885e-08,0.92565,2
107.449, 22.33333,     -0.12372, 91.07387,50.00000,35.00000,1.703227e-08,0.92612,3
107.241, 27.13333,-5.611693e-02, 90.47041,50.00000,35.00000,1.701837e-08,0.92609,3
110.247, 31.93333, 3.966085e-02, 90.40929,50.00000,35.00000,1.701034e-08,0.92527,3
115.02, 36.73333, 8.502504e-02, 90.31404,50.00000,34.00000,1.703736e-08,0.92360,3
120.076, 41.53333,      0.10536, 90.25767,50.00000,34.00000,1.699150e-08,0.92145,3
125.003, 46.33333,      0.12686, 90.21382,50.00000,34.00000,1.699451e-08,0.92001,3
129.82, 51.13333,      0.14720, 90.19417,50.00000,34.00000,1.698241e-08,0.91927,3
134.635, 55.93333,      0.17199, 90.27235,50.00000,34.00000,1.696376e-08,0.91896,3
139.42, 60.73333,      0.19837, 90.35788,50.00000,34.00000,1.694425e-08,0.91903,3
144.228, 65.53333,      0.22309, 90.47279,50.00000,34.00000,1.693960e-08,0.91913,3
149.029, 70.33333,      0.24941, 90.61944,50.00000,34.00000,1.692963e-08,0.91915,3
153.843, 75.13333,      0.27371, 90.74406,50.00000,34.00000,1.692150e-08,0.91901,3
158.647, 79.93333,      0.30002, 90.89546,50.00000,34.00000,1.691861e-08,0.91869,3
163.467, 84.73333,      0.32688, 90.98596,50.00000,34.00000,1.687574e-08,0.91826,3
168.266, 89.53333,      0.35339, 91.14708,50.00000,34.00000,1.692498e-08,0.91770,3
173.055, 94.33333,      0.37973, 91.29633,50.00000,34.00000,1.690010e-08,0.91710,3
177.863, 99.13333,      0.40499, 91.44276,50.00000,34.00000,1.690239e-08,0.91646,3
182.644,103.933,      0.43213, 91.57732,50.00000,34.00000,1.687107e-08,0.91576,3
187.46,108.733,      0.45784, 91.66026,50.00000,34.00000,1.689813e-08,0.91508,3
192.268,113.533,      0.48490, 91.76544,50.00000,34.00000,1.686567e-08,0.91436,3
197.064,118.333,      0.51183, 91.83866,50.00000,34.00000,1.684045e-08,0.91365,3
201.864,123.133,      0.53864, 91.90475,50.00000,34.00000,1.688203e-08,0.91293,3
206.658,127.933,      0.56723, 91.98294,50.00000,35.00000,1.682797e-08,0.91217,3
211.455,132.733,      0.59248, 92.01944,50.00000,35.00000,1.684254e-08,0.91143,3
216.268,137.533,      0.61933, 92.07084,50.00000,35.00000,1.683057e-08,0.91063,3
221.061,142.333,      0.64531, 92.12700,50.00000,35.00000,1.684510e-08,0.90985,3
225.847,147.133,      0.67349, 92.18575,50.00000,35.00000,1.683565e-08,0.90901,3
230.655,151.933,      0.69907, 92.18575,50.00000,35.00000,1.680591e-08,0.90820,3
235.457,156.733,      0.72455, 92.21490,50.00000,35.00000,1.679030e-08,0.90733,3
240.239,161.533,      0.74971, 92.25162,50.00000,35.00000,1.682402e-08,0.90648,3
245.05,166.333,      0.77420, 92.26134,50.00000,35.00000,1.682628e-08,0.90558,3
249.841,171.133,      0.79896, 92.26134,50.00000,35.00000,1.681919e-08,0.90468,3
254.66,175.933,      0.82225, 92.21749,50.00000,35.00000,1.682131e-08,0.90374,3
259.447,180.733,      0.84679, 92.21015,50.00000,35.00000,1.682500e-08,0.90282,3
264.235,185.533,      0.86781, 92.17343,50.00000,35.00000,1.678191e-08,0.90189,3
269.052,190.333,      0.89255, 92.10994,50.00000,35.00000,1.681340e-08,0.90089,3
273.845,195.133,      0.91372, 92.08056,50.00000,35.00000,1.679598e-08,0.89991,3
278.638,199.933,      0.93536, 91.96825,50.00000,35.00000,1.676560e-08,0.89889,3
283.429,204.733,      0.95871, 91.90950,50.00000,35.00000,1.678744e-08,0.89789,3
288.239,209.533,      0.98011, 91.84363,50.00000,35.00000,1.680000e-08,0.89687,3
293.036,214.333,      0.99761, 91.74838,50.00000,35.00000,1.679910e-08,0.89579,3
297.836,219.133,      1.02057, 91.67257,50.00000,35.00000,1.679030e-08,0.89474,3
302.644,223.933,      1.03501, 91.60410,50.00000,35.00000,1.683514e-08,0.89364,3
307.424,228.733,      1.04961, 91.54557,50.00000,35.00000,1.678407e-08,0.89256,3
312.238,233.533,      1.06827, 91.46976,50.00000,35.00000,1.678612e-08,0.89147,3
317.035,238.333,      1.07818, 91.39633,50.00000,35.00000,1.679473e-08,0.89032,3
321.841,243.133,      1.09189, 91.32549,50.00000,35.00000,1.679703e-08,0.88919,3
326.644,247.933,      1.10340, 91.24255,50.00000,35.00000,1.676699e-08,0.88800,3
331.432,252.733,      1.11438, 91.16177,50.00000,34.00000,1.681533e-08,0.88686,3
336.236,257.533,      1.12400, 91.09590,50.00000,34.00000,1.677975e-08,0.88569,3
341.037,262.333,      1.13463, 90.96890,50.00000,34.00000,1.679978e-08,0.88450,3
345.835,267.133,      1.14206, 90.78553,50.00000,34.00000,1.678287e-08,0.88327,3
350.626,271.933,      1.15091, 90.57063,50.00000,34.00000,1.675014e-08,0.88206,3
355.415,276.733,      1.15739, 90.24557,50.00000,34.00000,1.676087e-08,0.88078,3
360.229,281.533,      1.23419, 89.76177,50.00000,34.00000,1.679950e-08,0.87954,3
365.027,286.333,      1.27240, 88.92851,50.00000,34.00000,1.676799e-08,0.87830,3
369.829,291.133,      1.32754, 87.67257,50.00000,34.00000,1.679297e-08,0.87698,3
374.626,295.933,      1.36909, 85.89114,50.00000,34.00000,1.674942e-08,0.87570,3
379.402,300.733,      1.52476, 83.19611,50.00000,34.00000,1.673419e-08,0.87442,3
384.212,305.533,      1.63448, 78.77084,50.00000,34.00000,1.673895e-08,0.87306,3
389.014,310.333,      1.71718, 71.58942,50.00000,34.00000,1.675493e-08,0.87175,3
393.82,315.133,      1.77095, 61.51728,50.00000,34.00000,1.674669e-08,0.87043,3
398.618,319.933,      1.76194, 49.63218,50.00000,34.00000,1.676650e-08,0.86904,3
400.289,321.218,      2.08555, 46.50216,50.00000,34.00000,1.673544e-08,0.86870,4
[...]
472.426,325.178,      9.16101, 15.84600,50.00000,34.00000,1.673576e-08,0.86754,4
479.882,325.538,      8.86999, 13.56609,50.00000,34.00000,1.676388e-08,0.86745,4
487.419,325.898,      8.74569, 11.95594,50.00000,34.00000,1.675661e-08,0.86734,4
494.994,326.258,      8.64568, 10.93218,50.00000,34.00000,1.674548e-08,0.86725,4
502.567,326.618,      8.53563, 10.47754,50.00000,34.00000,1.674605e-08,0.86716,4
510.137,326.978,      8.45708, 10.38963,50.00000,34.00000,1.675960e-08,0.86706,4
517.67,327.338,      8.42898, 10.44816,50.00000,34.00000,1.675927e-08,0.86690,4
525.176,327.698,      8.42936, 10.49957,50.00000,34.00000,1.675864e-08,0.86681,4
532.674,328.058,      8.43376, 10.59482,50.00000,34.00000,1.674131e-08,0.86671,4
540.167,328.418,      8.43060, 10.65356,50.00000,34.00000,1.674250e-08,0.86662,4
547.635,328.778,      8.41487, 10.74147,50.00000,34.00000,1.672340e-08,0.86652,4
555.101,329.138,      8.39200, 10.80022,50.00000,34.00000,1.673541e-08,0.86642,4
562.524,329.498,      8.37404, 10.89050,50.00000,34.00000,1.673095e-08,0.86632,4
569.937,329.858,      8.35262, 10.94924,50.00000,34.00000,1.670731e-08,0.86623,4
577.333,330.218,      8.34104, 11.03952,50.00000,34.00000,1.673115e-08,0.86609,4
584.722,330.578,      8.33428, 11.09827,50.00000,34.00000,1.673562e-08,0.86598,4
592.101,330.938,      8.33945, 11.15680,50.00000,34.00000,1.676777e-08,0.86588,4
599.454,331.298,      8.35489, 11.24492,50.00000,34.00000,1.673701e-08,0.86579,4
606.816,331.658,      8.38861, 11.30346,50.00000,34.00000,1.673664e-08,0.86569,4
614.166,332.018,      8.43561, 11.36220,50.00000,34.00000,1.674345e-08,0.86559,4
621.486,332.378,      8.48759, 11.39136,50.00000,34.00000,1.672647e-08,0.86550,4
628.818,332.738,      8.55644, 11.43045,50.00000,34.00000,1.676276e-08,0.86535,4
636.134,333.098,      8.64008, 11.51123,50.00000,34.00000,1.676850e-08,0.86524,4
643.43,333.458,      8.74492, 11.51123,50.00000,34.00000,1.675697e-08,0.86514,4
650.717,333.818,      8.87090, 11.51857,50.00000,34.00000,1.673045e-08,0.86505,4
658.007,334.178,      9.01370, 11.48186,50.00000,34.00000,1.675673e-08,0.86496,4
665.294,334.538,      9.16546, 11.36458,50.00000,34.00000,1.670953e-08,0.86486,4
672.572,334.898,      9.30882, 11.26933,50.00000,34.00000,1.673010e-08,0.86476,4
679.849,335.258,      9.43504, 11.09827,50.00000,34.00000,1.674743e-08,0.86465,4
687.126,335.618,      9.55450, 10.89784,50.00000,34.00000,1.673434e-08,0.86451,4
694.399,335.978,      9.66905, 10.67559,50.00000,34.00000,1.674672e-08,0.86441,4
701.679,336.338,      9.75329, 10.45810,50.00000,34.00000,1.674795e-08,0.86431,4
708.959,336.698,      9.80011, 10.21123,50.00000,34.00000,1.675545e-08,0.86421,4
716.23,337.058,      9.82212,  9.99136,50.00000,34.00000,1.677488e-08,0.86411,4
723.496,337.418,      9.81927,  9.79330,50.00000,34.00000,1.674834e-08,0.86402,4
730.77,337.778,      9.77629,  9.66631,50.00000,34.00000,1.672822e-08,0.86392,4
738.038,338.138,      9.68324,  9.60043,50.00000,34.00000,1.667506e-08,0.86376,4
745.302,338.498,      9.64964,  9.62959,50.00000,34.00000,1.673719e-08,0.86366,4
752.557,338.858,      9.66784,  9.72009,50.00000,34.00000,1.675345e-08,0.86357,4
759.81,339.218,      9.68503,  9.77883,50.00000,34.00000,1.669884e-08,0.86346,4
767.067,339.578,      9.68332,  9.86674,50.00000,34.00000,1.673057e-08,0.86337,4
774.326,339.938,      9.66060,  9.87408,50.00000,34.00000,1.673490e-08,0.86328,4
781.559,340.298,      9.65928,  9.96199,50.00000,34.00000,1.673427e-08,0.86317,4
788.815,340.658,      9.64471, 10.02073,50.00000,34.00000,            ,0.44937,4
794.147,340.923,      9.63527, 10.04989,50.00000,34.00000,            ,0.44723,4

File: ExpDat_2025_07_23_SL_PS_Petri_Dish_Dynamic.csv
#EXPORTTYPE:                 ,DATA ALL
#FILE:                       ,2025_07_23_SL_PS_Petri_Dish_Dynamic.ngb-ss5
#FORMAT:                     ,NETZSCH5
#FTYPE:                      ,ASCII
#IDENTITY:                   ,PS-Petri-Dish
#DECIMAL:                    ,POINT
#SEPARATOR:                  ,COMMA
#MTYPE:                      ,DSC
#INSTRUMENT:                 ,NETZSCH STA 449F5
#PROJECT:                    ,
#DATE/TIME:                  ,7/23/2025 1:41:24 PM (UTC-4)
#CORR. FILE:                 ,
#TEMPCAL:                    ,05-05-2025 14:38
#SENSITIVITY:                ,28-06-2023 13:53
#LABORATORY:                 ,Tran/AAG
#OPERATOR:                   ,Stanley
#REMARK:                     ,2025_03_20_Styrofoam_dynamic
#SAMPLE:                     ,PS-Petri-Dish
#SAMPLE MASS /mg:            ,5.85
#MATERIAL:                   ,Polystyrene
#REFERENCE:                  ,
#REFERENCE MASS /mg:         ,0
#TYPE OF CRUCIBLE:           ,Al2O3 85 ‘l, open
#SAMPLE CRUCIBLE MASS /mg:   ,0
#REFERENCE CRUCIBLE MASS /mg:,0
#DSC RANGE /‘V:              ,5000
#TG RANGE /mg:               ,35000
#TAU-R:                      ,---
#CORR. CODE:                 ,000
#EXO:                        ,-1
#RANGE:                      ,20›C....800›C/0.0....20.0K/min
#SEGMENT:                    ,S1-4/4
#SEG. 1:                     ,20›C/5.0(K/min)/100›C
#SEG. 2:                     ,100›C/00:05/100›C
#SEG. 3:                     ,100›C/1.0(K/min)/400›C
#SEG. 4:                     ,400›C/20.0(K/min)/800›C

##Temp./›C,Time/min,DSC/(mW/mg),Mass/%,Gas Flow(purge2)/(ml/min),Gas Flow(protective)/(ml/min),TIC(scan:1)/A,Sensit./(uV/mW),Segment
 28.00700,  0.00000,      0.46662,    100,50.00000,38.00000,            ,0.92317,1
 37.41400,  5.06667,      0.31788,     93.67231,50.00000,32.00000,1.687283e-08,0.92387,1
 61.61700, 10.13333,      1.04933,     95.11299,50.00000,32.00000,1.695802e-08,0.92434,1
 92.36200, 15.20000,      1.26693,     95.55402,50.00000,32.00000,1.690749e-08,0.92512,1
106.851, 19.18333,      0.31426,     93.97402,50.00000,32.00000,1.690227e-08,0.92575,2
107.296, 23.66667,     -0.16858,     92.60667,50.00000,32.00000,1.689262e-08,0.92619,3
107.915, 28.73333, 1.774095e-02,     92.29726,50.00000,32.00000,1.687496e-08,0.92591,3
111.982, 33.80000,      0.16813,     92.23726,50.00000,32.00000,1.688501e-08,0.92471,3
117.273, 38.86667,      0.21201,     92.10974,50.00000,32.00000,1.685692e-08,0.92266,3
122.543, 43.93333,      0.22486,     92.06137,50.00000,32.00000,1.685408e-08,0.92061,3
127.683, 49.00000,      0.24079,     92.04581,50.00000,32.00000,1.685338e-08,0.91954,3
132.745, 54.06667,      0.26097,     92.09231,50.00000,32.00000,1.681480e-08,0.91900,3
137.82, 59.13333,      0.28402,     92.13863,50.00000,32.00000,1.678404e-08,0.91896,3
142.905, 64.20000,      0.30794,     92.24308,50.00000,32.00000,1.681656e-08,0.91907,3
147.97, 69.26667,      0.33521,     92.31846,50.00000,31.00000,1.678730e-08,0.91915,3
153.052, 74.33333,      0.36137,     92.43453,50.00000,31.00000,1.682160e-08,0.91905,3
158.127, 79.40000,      0.38657,     92.44427,50.00000,31.00000,1.682183e-08,0.91876,3
163.167, 84.46667,      0.41576,     92.62410,50.00000,31.00000,1.685310e-08,0.91832,3
168.236, 89.53333,      0.44373,     92.73436,50.00000,31.00000,1.681525e-08,0.91775,3
173.319, 94.60000,      0.47062,     92.85607,50.00000,31.00000,1.684442e-08,0.91711,3
178.39, 99.66667,      0.49952,     92.93744,50.00000,31.00000,1.685940e-08,0.91641,3
183.46,104.733,      0.53209,     93.03026,50.00000,31.00000,1.680092e-08,0.91570,3
188.522,109.8,      0.56303,     93.11521,50.00000,31.00000,1.684148e-08,0.91496,3
193.593,114.867,      0.59428,     93.15402,50.00000,30.00000,1.681882e-08,0.91421,3
198.654,119.933,      0.62748,     93.17726,50.00000,30.00000,1.679343e-08,0.91347,3
203.721,125,      0.65696,     93.20615,50.00000,30.00000,1.680754e-08,0.91269,3
208.777,130.067,      0.69037,     93.23709,50.00000,30.00000,1.681424e-08,0.91190,3
213.876,135.133,      0.72508,     93.25453,50.00000,30.00000,1.679054e-08,0.91109,3
218.937,140.2,      0.75983,     93.27009,50.00000,30.00000,1.676987e-08,0.91026,3
223.988,145.267,      0.79527,     93.26427,50.00000,30.00000,1.677263e-08,0.90942,3
229.06,150.333,      0.82913,     93.26427,50.00000,30.00000,1.677504e-08,0.90855,3
234.109,155.4,      0.86430,     93.24479,50.00000,30.00000,1.674136e-08,0.90767,3
239.188,160.467,      0.89866,     93.19658,50.00000,30.00000,1.675780e-08,0.90678,3
244.256,165.533,      0.93420,     93.16564,50.00000,30.00000,1.677232e-08,0.90585,3
249.31,170.6,      0.96624,     93.10752,50.00000,30.00000,1.673711e-08,0.90491,3
254.395,175.667,      1.00391,     93.05538,50.00000,30.00000,1.673576e-08,0.90394,3
259.443,180.733,      1.03773,     92.99932,50.00000,30.00000,1.673799e-08,0.90295,3
264.512,185.8,      1.07392,     92.91026,50.00000,30.00000,1.678269e-08,0.90195,3
269.581,190.867,      1.11008,     92.80000,50.00000,30.00000,1.678908e-08,0.90092,3
274.635,195.933,      1.14943,     92.69179,50.00000,30.00000,1.677311e-08,0.89988,3
279.698,201,      1.18492,     92.56410,50.00000,30.00000,1.675367e-08,0.89886,3
284.765,206.067,      1.21811,     92.40752,50.00000,30.00000,1.677165e-08,0.89778,3
289.832,211.133,      1.25517,     92.29145,50.00000,30.00000,1.675936e-08,0.89669,3
294.894,216.2,      1.28926,     92.11162,50.00000,30.00000,1.675243e-08,0.89558,3
299.961,221.267,      1.32713,     91.96650,50.00000,30.00000,1.675832e-08,0.89445,3
305.025,226.333,      1.36499,     91.73829,50.00000,30.00000,1.672169e-08,0.89331,3
310.091,231.4,      1.40603,     91.55470,50.00000,30.00000,1.679883e-08,0.89214,3
315.177,236.467,      1.44884,     91.26256,50.00000,30.00000,1.677602e-08,0.89096,3
320.237,241.533,      1.49149,     90.98410,50.00000,30.00000,1.677684e-08,0.88981,3
325.309,246.6,      1.53011,     90.52581,50.00000,30.00000,1.676633e-08,0.88858,3
330.371,251.667,      1.56922,     90.01128,50.00000,30.00000,1.677311e-08,0.88735,3
335.427,256.733,      1.61317,     89.27060,50.00000,30.00000,1.677289e-08,0.88611,3
340.501,261.8,      1.66974,     88.15487,50.00000,30.00000,1.678217e-08,0.88485,3
345.554,266.867,      1.71562,     86.70239,50.00000,30.00000,1.676258e-08,0.88362,3
350.628,271.933,      1.77768,     84.39521,50.00000,30.00000,1.677982e-08,0.88232,3
355.697,277,      1.88706,     80.71897,50.00000,30.00000,1.679299e-08,0.88101,3
360.762,282.067,      1.97356,     75.42581,50.00000,30.00000,1.678266e-08,0.87968,3
365.813,287.133,      2.09588,     67.38274,50.00000,30.00000,1.679379e-08,0.87834,3
370.881,292.2,      2.22348,     56.03060,50.00000,30.00000,1.679675e-08,0.87698,3
375.948,297.267,      2.39926,     40.59607,50.00000,30.00000,1.680559e-08,0.87560,3
381.014,302.333,      2.38274,     22.91624,50.00000,31.00000,1.678326e-08,0.87423,3
386.096,307.4,      2.14345,      7.80274,50.00000,31.00000,1.679013e-08,0.87289,3
391.162,312.467,      1.82486,     -0.52667,50.00000,31.00000,1.676693e-08,0.87147,3
396.235,317.533,      1.59671,     -3.35983,50.00000,31.00000,1.681032e-08,0.87004,3
399.772,321.058,      1.54687,     -4.03863,50.00000,31.00000,1.677782e-08,0.86904,4
401.973,321.438,      3.14593,     -3.79880,50.00000,31.00000,1.679656e-08,0.86893,4
[...]
473.597,325.238,     10.78035,     -2.82615,50.00000,31.00000,1.678708e-08,0.86784,4
481.46,325.618,     10.88669,     -2.74684,50.00000,31.00000,1.676970e-08,0.86774,4
489.416,325.998,     11.02475,     -2.68308,50.00000,31.00000,1.676624e-08,0.86764,4
497.403,326.378,     11.14433,     -2.61333,50.00000,31.00000,1.678322e-08,0.86755,4
505.419,326.758,     11.20790,     -2.56496,50.00000,31.00000,1.680027e-08,0.86741,4
513.397,327.138,     11.22008,     -2.51863,50.00000,31.00000,1.680147e-08,0.86730,4
521.351,327.518,     11.21772,     -2.44906,50.00000,31.00000,1.679064e-08,0.86720,4
529.278,327.898,     11.21373,     -2.40068,50.00000,31.00000,1.678728e-08,0.86711,4
537.199,328.278,     11.20339,     -2.33111,50.00000,31.00000,1.679970e-08,0.86696,4
545.111,328.658,     11.17627,     -2.30581,50.00000,31.00000,1.682169e-08,0.86686,4
552.975,329.038,     11.13321,     -2.23624,50.00000,31.00000,1.676090e-08,0.86676,4
560.831,329.418,     11.07900,     -2.21299,50.00000,31.00000,1.677804e-08,0.86667,4
568.676,329.798,     11.01218,     -2.16667,50.00000,31.00000,1.678477e-08,0.86653,4
576.493,330.178,     10.93015,     -2.10667,50.00000,31.00000,1.676862e-08,0.86642,4
584.304,330.558,     10.84120,     -2.08735,50.00000,31.00000,1.679323e-08,0.86633,4
592.111,330.938,     10.73807,     -2.01573,50.00000,31.00000,1.677016e-08,0.86623,4
599.877,331.318,     10.62684,     -2.01573,50.00000,31.00000,1.679095e-08,0.86607,4
607.65,331.698,     10.51338,     -1.96752,50.00000,31.00000,1.679348e-08,0.86598,4
615.408,332.078,     10.39530,     -1.93846,50.00000,31.00000,1.675783e-08,0.86588,4
623.148,332.458,     10.28822,     -1.89197,50.00000,31.00000,1.677141e-08,0.86578,4
630.884,332.838,     10.18771,     -1.84564,50.00000,31.00000,1.680054e-08,0.86564,4
638.602,333.218,     10.09163,     -1.81077,50.00000,31.00000,1.683946e-08,0.86554,4
646.324,333.598,     10.01114,     -1.77607,50.00000,31.00000,1.682199e-08,0.86544,4
654.016,333.978,      9.94561,     -1.72957,50.00000,31.00000,1.678248e-08,0.86535,4
661.707,334.358,      9.90535,     -1.70632,50.00000,31.00000,1.680007e-08,0.86520,4
669.394,334.738,      9.87853,     -1.68325,50.00000,31.00000,1.678841e-08,0.86510,4
677.078,335.118,      9.86659,     -1.67744,50.00000,31.00000,1.679896e-08,0.86501,4
684.773,335.498,      9.85742,     -1.66000,50.00000,31.00000,1.681520e-08,0.86490,4
692.444,335.878,      9.84550,     -1.63675,50.00000,31.00000,1.682130e-08,0.86474,4
700.119,336.258,      9.84320,     -1.63675,50.00000,31.00000,1.679917e-08,0.86466,4
707.791,336.638,      9.83022,     -1.63675,50.00000,31.00000,1.682975e-08,0.86456,4
715.464,337.018,      9.80105,     -1.63675,50.00000,31.00000,1.681757e-08,0.86445,4
723.135,337.398,      9.76087,     -1.63675,50.00000,31.00000,1.681966e-08,0.86436,4
730.794,337.778,      9.71635,     -1.63675,50.00000,31.00000,1.682191e-08,0.86421,4
738.459,338.158,      9.64298,     -1.61350,50.00000,31.00000,1.681723e-08,0.86411,4
746.117,338.538,      9.56362,     -1.63675,50.00000,31.00000,1.680115e-08,0.86401,4
753.777,338.918,      9.47691,     -1.61932,50.00000,31.00000,1.678184e-08,0.86391,4
761.445,339.298,      9.37974,     -1.61350,50.00000,31.00000,1.678483e-08,0.86377,4
769.107,339.678,      9.27473,     -1.61350,50.00000,31.00000,1.678320e-08,0.86367,4
776.763,340.058,      9.16412,     -1.61350,50.00000,31.00000,1.677224e-08,0.86356,4
784.412,340.438,      9.04933,     -1.61350,50.00000,31.00000,1.679718e-08,0.86347,4
792.065,340.818,      8.93481,     -1.61350,50.00000,31.00000,            ,0.44807,4
794.388,340.933,      8.90153,     -1.58650,50.00000,31.00000,            ,0.44714,4