Folder: data-visualizer/data/TGA/commercial_samples (part 9)

File: ExpDat_2025_08_27_SL_PS_Blue_Cup_SCF3_Isothermal.csv
#EXPORTTYPE:                 ,DATA ALL
#FILE:                       ,2025_08_27_SL_PS_Blue_Cup_SCF3_Isothermal.ngb-ss5
#FORMAT:                     ,NETZSCH5
#FTYPE:                      ,ASCII
#IDENTITY:                   ,250821-P5EER3-V3+4
#DECIMAL:                    ,POINT
#SEPARATOR:                  ,COMMA
#MTYPE:                      ,DSC
#INSTRUMENT:                 ,NETZSCH STA 449F5
#PROJECT:                    ,Polystyrene
#DATE/TIME:                  ,8/27/2025 12:05:40 PM (UTC-4)
#CORR. FILE:                 ,
#TEMPCAL:                    ,05-05-2025 14:38
#SENSITIVITY:                ,28-06-2023 13:53
#LABORATORY:                 ,Tran/AAG
#OPERATOR:                   ,Stanley
#REMARK:                     ,2025_03_29_SL_005d_M1_isothermal
#SAMPLE:                     ,250821-P5EER3-V3+4
#SAMPLE MASS /mg:            ,5.35
#MATERIAL:                   ,Polystyrene
#REFERENCE:                  ,
#REFERENCE MASS /mg:         ,0
#TYPE OF CRUCIBLE:           ,Al2O3 85 ‘l, open
#SAMPLE CRUCIBLE MASS /mg:   ,0
#REFERENCE CRUCIBLE MASS /mg:,0
#DSC RANGE /‘V:              ,5000
#TG RANGE /mg:               ,35000
#TAU-R:                      ,---
#CORR. CODE:                 ,000
#EXO:                        ,-1
#RANGE:                      ,30›C....800›C/0.0....20.0K/min
#SEGMENT:                    ,S1-5/5
#SEG. 1:                     ,30›C/10.0(K/min)/100›C
#SEG. 2:                     ,100›C/00:10/100›C
#SEG. 3:                     ,100›C/5.0(K/min)/300›C
#SEG. 4:                     ,300›C/20:00/300›C
#SEG. 5:                     ,300›C/20.0(K/min)/800›C

##Temp./›C,Time/min,DSC/(mW/mg),Mass/%,Gas Flow(purge2)/(ml/min),Gas Flow(protective)/(ml/min),TIC(scan:1)/A,Sensit./(uV/mW),Segment
 26.41200,   0.00000,      0.69924,    100,50.00000,50.00000,            ,0.92285,1
 75.21200,   6.40000,      2.24920,     95.96748,50.00000,50.00000,8.178306e-09,0.92418,1
104.18,   9.89917,      1.11270,     94.07065,50.00000,50.00000,8.165746e-09,0.92487,2
109.999,  13.09917,      0.12331,     92.04467,50.00000,50.00000,8.144332e-09,0.92543,2
107.645,  16.29917,     -0.24860,     90.64056,50.00000,50.00000,8.151384e-09,0.92590,2
116.905,  21.99917,      1.04954,     92.21383,50.00000,50.00000,8.123576e-09,0.92618,3
152.961,  28.39917,      1.59046,     93.11682,50.00000,50.00000,8.128457e-09,0.92500,3
187.497,  34.79917,      1.46144,     92.94991,50.00000,50.00000,8.117982e-09,0.92340,3
219.602,  41.19917,      1.39007,     92.64112,50.00000,50.00000,8.099597e-09,0.92197,3
251.435,  47.59917,      1.31236,     91.91570,50.00000,50.00000,8.103139e-09,0.92090,3
283.324,  53.99917,      1.18602,     90.31495,50.00000,50.00000,8.114792e-09,0.92001,3
301.749,  65.49917,     -0.81816,     86.99925,50.00000,37.00000,8.106670e-09,0.91882,4
300.036,  81.49917,     -0.72954,     84.83383,50.00000,37.00000,8.127722e-09,0.91828,4
300.008,  97.49917,     -0.73495,     83.60523,50.00000,37.00000,8.138417e-09,0.91856,4
300.008, 113.499,     -0.73839,     82.79308,50.00000,37.00000,8.159644e-09,0.91916,4
300.007, 129.499,     -0.73676,     82.17776,50.00000,37.00000,8.163963e-09,0.91808,4
300.017, 145.499,     -0.73532,     81.67234,50.00000,37.00000,8.191721e-09,0.91200,4
300.018, 161.499,     -0.73496,     81.21981,50.00000,37.00000,8.204598e-09,0.90203,4
300.01, 177.499,     -0.73404,     80.80953,50.00000,37.00000,8.253330e-09,0.89039,4
300.005, 193.499,     -0.73404,     80.41626,50.00000,37.00000,8.276039e-09,0.87791,4
300.012, 209.499,     -0.73640,     79.97645,50.00000,37.00000,8.301127e-09,0.86452,4
300.011, 225.499,     -0.73223,     79.59159,50.00000,37.00000,8.338183e-09,0.85010,4
300.017, 241.499,     -0.73188,     79.17065,50.00000,37.00000,8.356172e-09,0.83473,4
300.026, 257.499,     -0.73297,     78.83028,50.00000,37.00000,8.349974e-09,0.81854,4
300.003, 273.499,     -0.73313,     78.44748,50.00000,37.00000,8.393784e-09,0.80168,4
300.015, 289.499,     -0.73532,     78.09234,50.00000,37.00000,8.427918e-09,0.78450,4
300.013, 305.499,     -0.73658,     77.72224,50.00000,37.00000,8.465903e-09,0.78641,4
300.015, 321.499,     -0.73369,     77.33308,50.00000,37.00000,8.478117e-09,0.78713,4
299.999, 337.499,     -0.73530,     76.96935,50.00000,37.00000,8.496814e-09,0.78720,4
300.022, 353.499,     -0.73315,     76.59084,50.00000,37.00000,8.529805e-09,0.78720,4
300.028, 369.499,     -0.73370,     76.19757,50.00000,38.00000,8.529902e-09,0.78720,4
300.012, 385.499,     -0.73405,     75.81477,50.00000,38.00000,8.540387e-09,0.78719,4
300.018, 401.499,     -0.73460,     75.47645,50.00000,38.00000,8.579562e-09,0.78718,4
300.002, 417.499,     -0.73440,     75.08318,50.00000,38.00000,8.589950e-09,0.78720,4
300.025, 433.499,     -0.73460,     74.70243,50.00000,38.00000,8.588433e-09,0.78720,4
300.002, 449.499,     -0.73295,     74.31981,50.00000,38.00000,8.574061e-09,0.78719,4
300.03, 465.499,     -0.73642,     73.93477,50.00000,38.00000,8.572614e-09,0.78719,4
299.998, 481.499,     -0.73693,     73.55850,50.00000,38.00000,8.577478e-09,0.78719,4
300.009, 497.499,     -0.73749,     73.16299,50.00000,39.00000,8.596067e-09,0.78721,4
300.023, 513.499,     -0.73913,     72.79084,50.00000,39.00000,8.580883e-09,0.78719,4
300.011, 529.499,     -0.73839,     72.40393,50.00000,39.00000,8.581637e-09,0.78719,4
300.02, 545.499,     -0.74058,     72.01477,50.00000,39.00000,8.583376e-09,0.78720,4
300.022, 561.499,     -0.74311,     71.62150,50.00000,40.00000,8.600615e-09,0.78720,4
300.014, 577.499,     -0.74293,     71.22598,50.00000,40.00000,8.611071e-09,0.78719,4
300.011, 593.499,     -0.74437,     70.83907,50.00000,40.00000,8.613212e-09,0.78720,4
300.016, 609.499,     -0.74456,     70.42243,50.00000,40.00000,8.642584e-09,0.78719,4
300.024, 625.499,     -0.74511,     70.04393,50.00000,40.00000,8.646521e-09,0.78718,4
300.032, 641.499,     -0.74693,     69.64430,50.00000,40.00000,8.645163e-09,0.78719,4
300.015, 657.499,     -0.74981,     69.21925,50.00000,40.00000,8.651497e-09,0.78719,4
300.017, 673.499,     -0.74945,     68.84692,50.00000,40.00000,8.673219e-09,0.78719,4
300.014, 689.499,     -0.75198,     68.41570,50.00000,40.00000,8.702823e-09,0.78719,4
300.002, 705.499,     -0.75306,     68.02654,50.00000,40.00000,8.688357e-09,0.78719,4
300.009, 721.499,     -0.75524,     67.60355,50.00000,40.00000,8.707191e-09,0.78719,4
300.027, 737.499,     -0.75435,     67.22935,50.00000,40.00000,8.700677e-09,0.78718,4
300.01, 753.499,     -0.75415,     66.82748,50.00000,40.00000,8.718730e-09,0.78720,4
300.02, 769.499,     -0.75579,     66.40243,50.00000,40.00000,8.719784e-09,0.78719,4
300.023, 785.499,     -0.75525,     66.00916,50.00000,40.00000,8.725671e-09,0.78720,4
300.016, 801.499,     -0.75814,     65.52280,50.00000,40.00000,8.729504e-09,0.78718,4
300.003, 817.499,     -0.75723,     65.09981,50.00000,40.00000,8.766897e-09,0.78718,4
300.012, 833.499,     -0.75941,     64.66000,50.00000,40.00000,8.760624e-09,0.78720,4
300.018, 849.499,     -0.75869,     64.26243,50.00000,40.00000,8.751063e-09,0.78719,4
300.024, 865.499,     -0.75833,     63.82467,50.00000,40.00000,8.764736e-09,0.78719,4
300.014, 881.499,     -0.75977,     63.43776,50.00000,40.00000,8.756319e-09,0.78719,4
300.02, 897.499,     -0.76086,     63.01907,50.00000,40.00000,8.766524e-09,0.78719,4
300.02, 913.499,     -0.76032,     62.58131,50.00000,40.00000,8.760638e-09,0.78720,4
[...]
300.02,1089.5,     -0.76666,     57.96710,50.00000,40.00000,8.781188e-09,0.78720,4
300.02,1105.5,     -0.76829,     57.54411,50.00000,40.00000,8.790157e-09,0.78718,4
300.009,1121.5,     -0.76756,     57.12766,50.00000,40.00000,8.774427e-09,0.78720,4
300.011,1137.5,     -0.76883,     56.68766,50.00000,40.00000,8.791886e-09,0.78721,4
300.001,1153.5,     -0.77063,     56.26056,50.00000,40.00000,8.791631e-09,0.78718,4
300.013,1169.5,     -0.77028,     55.84393,50.00000,40.00000,8.788096e-09,0.78720,4
300.025,1185.5,     -0.76957,     55.43159,50.00000,40.00000,8.798609e-09,0.78719,4
300.004,1201.5,     -0.77009,     55.04262,50.00000,40.00000,8.812048e-09,0.78720,4
300.011,1217.5,     -0.77245,     54.62804,50.00000,40.00000,8.798553e-09,0.78719,4
300.016,1233.5,     -0.77101,     54.24318,50.00000,40.00000,8.816012e-09,0.78718,4
300.017,1249.5,     -0.77264,     53.81402,50.00000,40.00000,8.803399e-09,0.78720,4
300.664,1257.42,     -0.46104,     53.68916,50.00000,50.00000,8.810462e-09,0.78718,5
310.355,1258.22,      2.91703,     54.70430,50.00000,50.00000,8.809939e-09,0.78718,5
324.567,1259.02,      4.54361,     55.00879,50.00000,50.00000,8.787232e-09,0.78718,5
338.232,1259.82,      4.69677,     55.16093,50.00000,50.00000,8.811364e-09,0.78718,5
354.359,1260.62,      5.64178,     55.44654,50.00000,50.00000,8.821022e-09,0.78719,5
371.678,1261.42,      6.11790,     55.28991,50.00000,50.00000,8.820932e-09,0.78719,5
389.026,1262.22,      6.34945,     54.02972,50.00000,50.00000,8.811370e-09,0.78719,5
406.582,1263.02,      6.72896,     50.21701,50.00000,50.00000,8.798011e-09,0.78719,5
424.043,1263.82,      7.45849,     40.38598,50.00000,50.00000,8.806280e-09,0.78720,5
441.287,1264.62,      8.18973,     21.25458,50.00000,50.00000,8.789715e-09,0.78719,5
458.31,1265.42,      7.20064,      3.88486,50.00000,50.00000,8.794560e-09,0.78718,5
475.185,1266.22,      5.47343,     -1.75495,50.00000,50.00000,8.801176e-09,0.78718,5
491.905,1267.02,      4.65244,     -2.56897,50.00000,50.00000,8.801292e-09,0.78719,5
508.418,1267.82,      4.22396,     -2.57533,50.00000,50.00000,8.795213e-09,0.78719,5
524.807,1268.62,      3.89875,     -2.49720,50.00000,50.00000,8.798025e-09,0.78718,5
541.104,1269.42,      3.59672,     -2.37028,50.00000,50.00000,8.811030e-09,0.78718,5
557.332,1270.22,      3.29890,     -2.23065,50.00000,50.00000,8.798613e-09,0.78720,5
573.529,1271.02,      3.01770,     -2.10374,50.00000,50.00000,8.804763e-09,0.78720,5
589.723,1271.82,      2.73882,     -1.97701,50.00000,50.00000,8.789072e-09,0.78720,5
605.885,1272.62,      2.45648,     -1.85009,50.00000,50.00000,8.820085e-09,0.78720,5
622.017,1273.42,      2.17222,     -1.72318,50.00000,50.00000,8.799453e-09,0.78720,5
638.14,1274.22,      1.88048,     -1.62168,50.00000,50.00000,8.796069e-09,0.78721,5
654.246,1275.02,      1.54356,     -1.49271,50.00000,50.00000,8.795137e-09,0.78719,5
670.35,1275.82,      1.15442,     -1.39121,50.00000,50.00000,8.807927e-09,0.78719,5
686.463,1276.62,      0.67266,     -1.28972,50.00000,50.00000,8.796361e-09,0.78719,5
702.573,1277.42, 7.694925e-02,     -1.18822,50.00000,50.00000,8.799702e-09,0.78720,5
718.712,1278.22,     -0.60866,     -1.08673,50.00000,50.00000,8.794057e-09,0.78720,5
734.86,1279.02,     -1.36524,     -0.98523,50.00000,50.00000,8.802369e-09,0.78719,5
750.98,1279.82,     -2.16500,     -0.88374,50.00000,50.00000,8.793902e-09,0.78719,5
767.113,1280.62,     -2.95110,     -0.78000,50.00000,50.00000,8.799980e-09,0.78719,5
783.243,1281.42,     -3.69825,     -0.67850,50.00000,50.00000,8.811528e-09,0.78719,5
794.83,1282,     -4.20103,     -0.60243,50.00000,50.00000,            ,0.44696,5

File: ExpDat_2025_09_04_SL_PS_Container-SCF3_Isothermal.csv
#EXPORTTYPE:                 ,DATA ALL
#FILE:                       ,2025_09_04_SL_PS_Container-SCF3_Isothermal_P5EER5_V1_2.ngb-ss5
#FORMAT:                     ,NETZSCH5
#FTYPE:                      ,ASCII
#IDENTITY:                   ,250825-P5EER5-V1+2
#DECIMAL:                    ,POINT
#SEPARATOR:                  ,COMMA
#MTYPE:                      ,DSC
#INSTRUMENT:                 ,NETZSCH STA 449F5
#PROJECT:                    ,PS-SCF3
#DATE/TIME:                  ,9/4/2025 10:06:24 AM (UTC-4)
#CORR. FILE:                 ,
#TEMPCAL:                    ,05-05-2025 14:38
#SENSITIVITY:                ,28-06-2023 13:53
#LABORATORY:                 ,Tran
#OPERATOR:                   ,Stanley
#REMARK:                     ,2025_03_29_SL_005d_M1_isothermal
#SAMPLE:                     ,250825-P5EER5-V1+2
#SAMPLE MASS /mg:            ,4.53
#MATERIAL:                   ,Polystyrene
#REFERENCE:                  ,
#REFERENCE MASS /mg:         ,0
#TYPE OF CRUCIBLE:           ,Al2O3 85 ‘l, open
#SAMPLE CRUCIBLE MASS /mg:   ,0
#REFERENCE CRUCIBLE MASS /mg:,0
#DSC RANGE /‘V:              ,5000
#TG RANGE /mg:               ,35000
#TAU-R:                      ,---
#CORR. CODE:                 ,000
#EXO:                        ,-1
#RANGE:                      ,30›C....800›C/0.0....20.0K/min
#SEGMENT:                    ,S1-5/5
#SEG. 1:                     ,30›C/10.0(K/min)/100›C
#SEG. 2:                     ,100›C/00:10/100›C
#SEG. 3:                     ,100›C/5.0(K/min)/300›C
#SEG. 4:                     ,300›C/20:00/300›C
#SEG. 5:                     ,300›C/20.0(K/min)/800›C

##Temp./›C,Time/min,DSC/(mW/mg),Mass/%,Gas Flow(purge2)/(ml/min),Gas Flow(protective)/(ml/min),TIC(scan:1)/A,Sensit./(uV/mW),Segment
 26.67700,   0.00000,      1.55371,    100,50.00000,50.00000,            ,0.92290,1
 73.12500,   6.40000,      2.91889,     90.76181,50.00000,50.00000,8.296892e-09,0.92466,1
101.895,   9.89917,      1.63050,     88.97616,50.00000,50.00000,8.275453e-09,0.92520,2
108.907,  13.09917,      0.30325,     86.82340,50.00000,50.00000,8.274214e-09,0.92560,2
107.44,  16.29917,     -0.27672,     85.13510,50.00000,50.00000,8.276103e-09,0.92595,2
117.21,  21.99917,      1.44009,     87.03819,50.00000,50.00000,8.294754e-09,0.92618,3
153.142,  28.39917,      2.14174,     88.21457,50.00000,50.00000,8.278215e-09,0.92516,3
187.544,  34.79917,      1.94367,     88.33929,50.00000,50.00000,8.268954e-09,0.92373,3
219.635,  41.19917,      1.89158,     88.61656,50.00000,50.00000,8.293241e-09,0.92245,3
251.453,  47.59917,      1.83071,     88.88631,50.00000,50.00000,8.273755e-09,0.92141,3
283.358,  53.99917,      1.68154,     88.99868,50.00000,50.00000,8.241745e-09,0.92053,3
301.76,  65.49917,     -0.92746,     88.29691,50.00000,31.00000,8.217407e-09,0.91926,4
300.027,  81.49917,     -0.79248,     86.50132,50.00000,31.00000,8.187662e-09,0.91860,4
300.012,  97.49917,     -0.79888,     85.40243,50.00000,31.00000,8.179312e-09,0.91874,4
300.02, 113.499,     -0.80146,     84.54327,50.00000,31.00000,8.163212e-09,0.91924,4
300.025, 129.499,     -0.80168,     83.86887,50.00000,31.00000,8.154123e-09,0.91758,4
300, 145.499,     -0.80486,     83.17969,50.00000,31.00000,8.174961e-09,0.91088,4
300.017, 161.499,     -0.80188,     82.76269,50.00000,30.00000,8.196136e-09,0.90052,4
300.025, 177.499,     -0.80403,     82.24812,50.00000,30.00000,8.204825e-09,0.88867,4
300.031, 193.499,     -0.80168,     81.72627,50.00000,29.00000,8.163442e-09,0.87594,4
300.027, 209.499,     -0.80211,     81.05430,50.00000,31.00000,8.161929e-09,0.86211,4
300.013, 225.499,     -0.80231,     80.55497,50.00000,31.00000,8.151233e-09,0.84753,4
300.01, 241.499,     -0.80338,     80.04790,50.00000,30.00000,8.144427e-09,0.83184,4
300.011, 257.499,     -0.80124,     79.47859,50.00000,30.00000,8.148053e-09,0.81533,4
300.021, 273.499,     -0.80018,     78.98146,50.00000,30.00000,8.133592e-09,0.79799,4
300.016, 289.499,     -0.80039,     78.45453,50.00000,30.00000,8.129951e-09,0.78417,4
300.026, 305.499,     -0.80125,     77.92009,50.00000,30.00000,8.123630e-09,0.78674,4
300.019, 321.499,     -0.79654,     77.37064,50.00000,30.00000,8.125094e-09,0.78716,4
300.018, 337.499,     -0.79975,     76.89360,50.00000,31.00000,8.118575e-09,0.78720,4
300.017, 353.499,     -0.80103,     76.38411,50.00000,31.00000,8.120664e-09,0.78719,4
300.007, 369.499,     -0.80294,     75.83223,50.00000,31.00000,8.130788e-09,0.78718,4
300.023, 385.499,     -0.79890,     75.33024,50.00000,31.00000,8.149459e-09,0.78720,4
300.02, 401.499,     -0.80296,     74.84834,50.00000,31.00000,8.124878e-09,0.78719,4
300.014, 417.499,     -0.80424,     74.31876,50.00000,31.00000,8.122472e-09,0.78719,4
300.017, 433.499,     -0.80081,     73.79183,50.00000,32.00000,8.129662e-09,0.78720,4
300.012, 449.499,     -0.80616,     73.30486,50.00000,32.00000,8.132618e-09,0.78719,4
300.022, 465.499,     -0.80296,     72.78786,50.00000,32.00000,8.132728e-09,0.78719,4
300.023, 481.499,     -0.80253,     72.21589,50.00000,32.00000,8.121522e-09,0.78720,4
300.028, 497.499,     -0.80489,     71.70397,50.00000,33.00000,8.099041e-09,0.78719,4
300.018, 513.499,     -0.80681,     71.17704,50.00000,33.00000,8.077130e-09,0.78719,4
300.011, 529.499,     -0.80766,     70.71501,50.00000,33.00000,8.059562e-09,0.78720,4
300.018, 545.499,     -0.81044,     70.24040,50.00000,33.00000,8.073154e-09,0.78720,4
300.016, 561.499,     -0.80809,     69.70110,50.00000,33.00000,8.050485e-09,0.78719,4
300.016, 577.499,     -0.81365,     69.19161,50.00000,33.00000,8.031506e-09,0.78719,4
300.006, 593.499,     -0.81578,     68.72208,50.00000,33.00000,8.019929e-09,0.78718,4
300.009, 609.499,     -0.81899,     68.20751,50.00000,33.00000,8.015729e-09,0.78719,4
300.022, 625.499,     -0.81580,     67.70817,50.00000,33.00000,7.991457e-09,0.78719,4
300.023, 641.499,     -0.82050,     67.19360,50.00000,33.00000,7.982841e-09,0.78719,4
300.018, 657.499,     -0.81836,     66.68168,50.00000,33.00000,7.970338e-09,0.78718,4
300.021, 673.499,     -0.82136,     66.15717,50.00000,33.00000,7.945777e-09,0.78719,4
300.037, 689.499,     -0.82309,     65.64018,50.00000,33.00000,7.961869e-09,0.78719,4
300.018, 705.499,     -0.82414,     65.10066,50.00000,34.00000,7.936327e-09,0.78720,4
300.009, 721.499,     -0.82755,     64.58366,50.00000,34.00000,7.927929e-09,0.78720,4
300.011, 737.499,     -0.82798,     64.06181,50.00000,34.00000,7.954832e-09,0.78719,4
300.024, 753.499,     -0.82864,     63.51479,50.00000,34.00000,7.968613e-09,0.78719,4
300.026, 769.499,     -0.83013,     62.99294,50.00000,34.00000,7.947329e-09,0.78719,4
300.003, 785.499,     -0.83354,     62.48344,50.00000,34.00000,7.937616e-09,0.78720,4
300.029, 801.499,     -0.83142,     61.93642,50.00000,34.00000,7.913896e-09,0.78719,4
300.008, 817.499,     -0.83397,     61.41457,50.00000,34.00000,7.912036e-09,0.78719,4
300.026, 833.499,     -0.83784,     60.87506,50.00000,34.00000,7.919269e-09,0.78719,4
300.025, 849.499,     -0.83420,     60.30574,50.00000,34.00000,7.919192e-09,0.78719,4
300.018, 865.499,     -0.83762,     59.78609,50.00000,34.00000,7.913642e-09,0.78719,4
300.015, 881.499,     -0.84061,     59.23179,50.00000,34.00000,7.894051e-09,0.78719,4
300.013, 897.499,     -0.84018,     58.68477,50.00000,34.00000,7.875295e-09,0.78720,4
[...]
300.026,1089.5,     -0.84811,     52.05673,50.00000,33.00000,7.908415e-09,0.78720,4
300.01,1105.5,     -0.85044,     51.53223,50.00000,33.00000,7.909148e-09,0.78717,4
300.009,1121.5,     -0.84895,     50.96777,50.00000,33.00000,7.900530e-09,0.78719,4
300.014,1137.5,     -0.85130,     50.38344,50.00000,33.00000,7.935395e-09,0.78719,4
300.019,1153.5,     -0.84767,     49.82141,50.00000,33.00000,7.940208e-09,0.78719,4
299.997,1169.5,     -0.85278,     49.27439,50.00000,33.00000,7.944936e-09,0.78719,4
300.021,1185.5,     -0.84939,     48.70508,50.00000,33.00000,7.972334e-09,0.78719,4
300.022,1201.5,     -0.85046,     48.17307,50.00000,33.00000,7.958060e-09,0.78719,4
300.014,1217.5,     -0.85323,     47.66358,50.00000,33.00000,7.962965e-09,0.78718,4
300.019,1233.5,     -0.85388,     47.09426,50.00000,33.00000,7.975689e-09,0.78719,4
300.009,1249.5,     -0.85322,     46.53731,50.00000,33.00000,7.960041e-09,0.78719,4
300.651,1257.42,     -0.46826,     46.10022,50.00000,50.00000,7.953568e-09,0.78719,5
310.364,1258.22,      4.10361,     46.78212,50.00000,50.00000,7.970447e-09,0.78719,5
324.642,1259.02,      6.50100,     47.04680,50.00000,50.00000,7.970900e-09,0.78719,5
338.31,1259.82,      6.75789,     47.29161,50.00000,50.00000,7.969784e-09,0.78719,5
354.453,1260.62,      8.07680,     47.62627,50.00000,50.00000,7.955459e-09,0.78719,5
371.813,1261.42,      8.78892,     47.33400,50.00000,50.00000,7.978412e-09,0.78719,5
389.158,1262.22,      9.05828,     45.64812,50.00000,50.00000,7.973050e-09,0.78719,5
406.748,1263.02,      9.60322,     40.68322,50.00000,50.00000,7.964173e-09,0.78719,5
424.198,1263.82,     10.44157,     28.87792,50.00000,50.00000,7.967084e-09,0.78719,5
441.419,1264.62,     11.02056,      9.25806,50.00000,50.00000,7.963150e-09,0.78718,5
458.455,1265.42,      9.73370,     -4.71258,50.00000,50.00000,7.963701e-09,0.78718,5
475.345,1266.22,      8.27238,     -7.84945,50.00000,50.00000,7.976765e-09,0.78719,5
492.015,1267.02,      7.59591,     -7.97682,50.00000,50.00000,7.978827e-09,0.78719,5
508.519,1267.82,      7.21021,     -7.85695,50.00000,50.00000,7.973885e-09,0.78719,5
524.893,1268.62,      6.87680,     -7.66954,50.00000,50.00000,7.967325e-09,0.78719,5
541.183,1269.42,      6.56248,     -7.48720,50.00000,50.00000,7.981607e-09,0.78719,5
557.366,1270.22,      6.22784,     -7.33488,50.00000,50.00000,7.984866e-09,0.78721,5
573.584,1271.02,      5.97381,     -7.13753,50.00000,50.00000,7.981000e-09,0.78719,5
589.81,1271.82,      5.66579,     -7.04525,50.00000,50.00000,7.983781e-09,0.78719,5
605.981,1272.62,      5.33349,     -6.88035,50.00000,50.00000,7.986671e-09,0.78719,5
622.117,1273.42,      5.01087,     -6.74305,50.00000,50.00000,7.973724e-09,0.78719,5
638.229,1274.22,      4.66345,     -6.60066,50.00000,50.00000,7.962546e-09,0.78719,5
654.353,1275.02,      4.28431,     -6.44327,50.00000,50.00000,7.979571e-09,0.78719,5
670.455,1275.82,      3.85503,     -6.34592,50.00000,50.00000,7.967420e-09,0.78720,5
686.559,1276.62,      3.36355,     -6.22605,50.00000,50.00000,7.989997e-09,0.78719,5
702.658,1277.42,      2.78623,     -6.10375,50.00000,50.00000,7.991501e-09,0.78719,5
718.793,1278.22,      2.13273,     -5.98124,50.00000,50.00000,7.995071e-09,0.78719,5
734.944,1279.02,      1.36029,     -5.86137,50.00000,50.00000,7.993425e-09,0.78720,5
751.071,1279.82,      0.46605,     -5.74150,50.00000,50.00000,7.997955e-09,0.78719,5
767.173,1280.62,     -0.46431,     -5.64415,50.00000,50.00000,7.983991e-09,0.78721,5
783.31,1281.42,     -1.40713,     -5.51678,50.00000,50.00000,7.970304e-09,0.78720,5
794.898,1282,     -2.05940,     -5.42693,50.00000,50.00000,            ,0.44693,5