Folder: data-visualizer/data/TGA/commercial_samples (part 4)

File: ExpDat_2025_08_11_SL_PS_Petri_Dish_SCF3_isothermal.csv
#EXPORTTYPE:                 ,DATA ALL
#FILE:                       ,2025_08_11_SL_PS_Petri_Dish_SCF3_250721_P5EER2_V1_2_Isothermal.ngb-ss5
#FORMAT:                     ,NETZSCH5
#FTYPE:                      ,ASCII
#IDENTITY:                   ,250721-P5EER2-V1+2
#DECIMAL:                    ,POINT
#SEPARATOR:                  ,COMMA
#MTYPE:                      ,TG
#INSTRUMENT:                 ,NETZSCH STA 449F5
#PROJECT:                    ,
#DATE/TIME:                  ,8/11/2025 1:00:34 PM (UTC-4)
#CORR. FILE:                 ,
#TEMPCAL:                    ,05-05-2025 14:38
#SENSITIVITY:                ,28-06-2023 13:53
#LABORATORY:                 ,Tran/AAG
#OPERATOR:                   ,Stanley
#REMARK:                     ,2025_03_29_SL_005d_M1_isothermal
#SAMPLE:                     ,250721-P5EER2-V1+2
#SAMPLE MASS /mg:            ,4.93
#MATERIAL:                   ,Polystyrene
#REFERENCE:                  ,
#REFERENCE MASS /mg:         ,0
#TYPE OF CRUCIBLE:           ,Al2O3 85 ‘l, open
#SAMPLE CRUCIBLE MASS /mg:   ,0
#REFERENCE CRUCIBLE MASS /mg:,0
#DSC RANGE /‘V:              ,5000
#TG RANGE /mg:               ,35000
#TAU-R:                      ,---
#CORR. CODE:                 ,000
#EXO:                        ,-1
#RANGE:                      ,30›C....800›C/0.0....20.0K/min
#SEGMENT:                    ,S4/5
#SEG. 1:                     ,30›C/10.0(K/min)/100›C
#SEG. 2:                     ,100›C/00:10/100›C
#SEG. 3:                     ,100›C/5.0(K/min)/300›C
#SEG. 4:                     ,300›C/20:00/300›C
#SEG. 5:                     ,300›C/20.0(K/min)/800›C

##Temp./›C,Time/min,Mass/%,Sensit./(uV/mW)
298.909,  57.10000,87.30041,0.78822
303.306,  61.10000,85.05396,0.78412
301.854,  65.10000,83.75720,0.78548
300.771,  69.10000,82.78661,0.78649
300.306,  73.10000,82.03387,0.78692
300.111,  77.10000,81.40507,0.78710
300.033,  81.10000,80.88195,0.78718
300.014,  85.10000,80.36329,0.78719
300.014,  89.10000,79.94097,0.78719
300.011,  93.10000,79.57383,0.78720
300.012,  97.10000,79.24118,0.78719
300.019, 101.1,79.02779,0.78719
300.018, 105.1,78.72475,0.78719
300.005, 109.1,78.43570,0.78720
300.006, 113.1,78.21298,0.78720
300.021, 117.1,78.01339,0.78719
300.029, 121.1,77.80223,0.78718
300.016, 125.1,77.65091,0.78719
300.018, 129.1,77.48560,0.78719
300.028, 133.1,77.37546,0.78718
300.024, 137.1,77.22394,0.78718
300.023, 141.1,77.10690,0.78718
300.014, 145.1,76.98296,0.78719
300.028, 149.1,76.85213,0.78718
300.025, 153.1,76.75578,0.78718
300.029, 157.1,76.62049,0.78718
300.007, 161.1,76.52414,0.78720
300.008, 165.1,76.42089,0.78720
300.025, 169.1,76.32211,0.78718
300.016, 173.1,76.23712,0.78719
300.026, 177.1,76.14077,0.78718
300.017, 181.1,76.01684,0.78719
300.019, 185.1,75.95274,0.78719
300.009, 189.1,75.84260,0.78720
300.002, 193.1,75.73915,0.78720
300.01, 197.1,75.64280,0.78720
300.021, 201.1,75.58093,0.78719
300.029, 205.1,75.49148,0.78718
300.007, 209.1,75.40872,0.78720
300.007, 213.1,75.32617,0.78720
300.011, 217.1,75.22982,0.78720
300.014, 221.1,75.09675,0.78719
300.014, 225.1,74.99351,0.78719
300.024, 229.1,74.91765,0.78718
300.001, 233.1,74.82353,0.78721
300.01, 237.1,74.72718,0.78720
300.032, 241.1,74.65375,0.78718
300.01, 245.1,74.56653,0.78720
300.015, 249.1,74.45416,0.78719
300.001, 253.1,74.36471,0.78721
300.024, 257.1,74.28661,0.78718
300.02, 261.1,74.17181,0.78719
300.022, 265.1,74.08235,0.78719
300.019, 269.1,73.99290,0.78719
300.023, 273.1,73.89655,0.78718
300.024, 277.1,73.82312,0.78718
300.014, 281.1,73.71988,0.78719
300.009, 285.1,73.63022,0.78720
300.011, 289.1,73.56836,0.78720
300.01, 293.1,73.42373,0.78720
300.009, 297.1,73.34807,0.78720
299.994, 301.1,73.31136,0.78721
300.007, 305.1,73.25396,0.78720
300.014, 309.1,73.15538,0.78719
300.021, 313.1,73.11176,0.78719
300.02, 317.1,72.99229,0.78719
300.003, 321.1,72.91663,0.78720
299.999, 325.1,72.80872,0.78721
300.011, 329.1,72.71704,0.78720
300.007, 333.1,72.57931,0.78720
299.998, 337.1,72.49209,0.78721
300.033, 341.1,72.36592,0.78718
300.016, 345.1,72.27870,0.78719
300.014, 349.1,72.16166,0.78719
300.014, 353.1,72.04462,0.78719
300.023, 357.1,71.95963,0.78718
300.012, 361.1,71.86329,0.78719
300.003, 365.1,71.72333,0.78720
300.015, 369.1,71.63144,0.78719
300.022, 373.1,71.52130,0.78719
300.005, 377.1,71.43874,0.78720
300.018, 381.1,71.33327,0.78719
300.018, 385.1,71.24381,0.78719
300.006, 389.1,71.17485,0.78720
300.023, 393.1,71.06004,0.78718
300.022, 397.1,70.95233,0.78719
300.014, 401.1,70.87647,0.78719
300.021, 405.1,70.79391,0.78719
300.022, 409.1,70.66998,0.78719
300.01, 413.1,70.56673,0.78720
300.021, 417.1,70.47262,0.78719
300.007, 421.1,70.37627,0.78720
300.014, 425.1,70.28682,0.78719
300.017, 429.1,70.19047,0.78719
300.019, 433.1,70.11014,0.78719
300.022, 437.1,70.02515,0.78719
300.016, 441.1,69.92191,0.78719
300.011, 445.1,69.81866,0.78720
300.012, 449.1,69.74990,0.78719
300.018, 453.1,69.64645,0.78719
300.028, 457.1,69.55700,0.78718
300.003, 461.1,69.46755,0.78720
300.013, 465.1,69.39878,0.78719
300.011, 469.1,69.30223,0.78720
300.015, 473.1,69.19209,0.78719
300.014, 477.1,69.09574,0.78719
300.016, 481.1,69.01095,0.78719
300.029, 485.1,68.92819,0.78718
300.014, 489.1,68.83185,0.78719
300.021, 493.1,68.74929,0.78719
300.016, 497.1,68.66897,0.78719
300.012, 501.1,68.58641,0.78719
300.027, 505.1,68.48316,0.78718
300.008, 509.1,68.39351,0.78720
300.009, 513.1,68.29026,0.78720
300.018, 517.1,68.20771,0.78719
300.019, 521.1,68.10446,0.78719
300.01, 525.1,67.99432,0.78720
300.016, 529.1,67.89554,0.78719
300.015, 533.1,67.83367,0.78719
300.019, 537.1,67.72353,0.78719
300.019, 541.1,67.63854,0.78719
300.018, 545.1,67.56288,0.78719
300.024, 549.1,67.43895,0.78718
300.018, 553.1,67.40000,0.78719
300.017, 557.1,67.30345,0.78719
300.029, 561.1,67.21866,0.78718
300.022, 565.1,67.10162,0.78719
300.023, 569.1,67.03266,0.78718
300.013, 573.1,66.92252,0.78719
300.019, 577.1,66.83996,0.78719
300.024, 581.1,66.71602,0.78718
300.007, 585.1,66.64037,0.78720
300.005, 589.1,66.57140,0.78720
300.015, 593.1,66.44767,0.78719
300.025, 597.1,66.37181,0.78718
300.019, 601.1,66.30304,0.78719
300.023, 605.1,66.18357,0.78718
300.023, 609.1,66.10791,0.78718
300.017, 613.1,65.99777,0.78719
300.029, 617.1,65.90142,0.78718
300.016, 621.1,65.79817,0.78719
300.007, 625.1,65.68803,0.78720
300.019, 629.1,65.61217,0.78719
300.027, 633.1,65.49513,0.78718
300.025, 637.1,65.40568,0.78718
300.01, 641.1,65.32312,0.78720
300.022, 645.1,65.23367,0.78719
300.032, 649.1,65.12799,0.78718
300.02, 653.1,65.03164,0.78719
300.017, 657.1,64.93306,0.78719
300.025, 661.1,64.83671,0.78718
300.022, 665.1,64.74483,0.78719
300.02, 669.1,64.64158,0.78719
300.008, 673.1,64.57262,0.78720
300.004, 677.1,64.46937,0.78720
300.017, 681.1,64.38682,0.78719
300.012, 685.1,64.26978,0.78719
300.02, 689.1,64.17343,0.78719
300.017, 693.1,64.09777,0.78719
300.022, 697.1,63.98986,0.78719
300.017, 701.1,63.87282,0.78719
300.007, 705.1,63.76957,0.78720
300.013, 709.1,63.70527,0.78719
300.018, 713.1,63.58134,0.78719
300.023, 717.1,63.49878,0.78718
300.014, 721.1,63.42292,0.78719
299.997, 725.1,63.31055,0.78721
300.011, 729.1,63.23489,0.78720
300.009, 733.1,63.11785,0.78720
300.014, 737.1,63.02840,0.78719
300.017, 741.1,62.90892,0.78719
300.02, 745.1,62.83327,0.78719
300.021, 749.1,62.74381,0.78719
300.015, 753.1,62.66105,0.78719
300.016, 757.1,62.56471,0.78719
[...]
300.023, 801.1,61.45172,0.78718
300.002, 805.1,61.36227,0.78720
300.008, 809.1,61.26126,0.78720
300.018, 813.1,61.14422,0.78719
300.017, 817.1,61.05477,0.78719
300.022, 821.1,60.97221,0.78719
300.021, 825.1,60.86897,0.78719
300.024, 829.1,60.77931,0.78718
300.007, 833.1,60.68986,0.78720
300.014, 837.1,60.59351,0.78719
300.01, 841.1,60.49716,0.78720
300.032, 845.1,60.35943,0.78718
300.018, 849.1,60.27688,0.78719
300.024, 853.1,60.18742,0.78718
300.015, 857.1,60.07039,0.78719
300.018, 861.1,59.99452,0.78719
300.013, 865.1,59.89817,0.78719
300.011, 869.1,59.80872,0.78720
300.019, 873.1,59.70548,0.78719
300.016, 877.1,59.61602,0.78719
300.023, 881.1,59.51258,0.78718
300.013, 885.1,59.45761,0.78719
300.011, 889.1,59.33144,0.78720
300.016, 893.1,59.24868,0.78719
300.031, 897.1,59.17525,0.78718
300.011, 901.1,59.08580,0.78720
300.007, 905.1,58.94807,0.78720
300.003, 909.1,58.86552,0.78720
300.019, 913.1,58.76917,0.78719
300.004, 917.1,58.67972,0.78720
300.006, 921.1,58.54888,0.78720
300.013, 925.1,58.46633,0.78719
300.021, 929.1,58.36978,0.78719
300.007, 933.1,58.25274,0.78720
300.016, 937.1,58.18174,0.78719
300.016, 941.1,58.07160,0.78719
300.019, 945.1,57.98884,0.78719
300.031, 949.1,57.88337,0.78718
300.014, 953.1,57.78235,0.78719
300.012, 957.1,57.67911,0.78719
300.02, 961.1,57.60345,0.78719
300.014, 965.1,57.52069,0.78719
300, 969.1,57.41744,0.78721
300.023, 973.1,57.30041,0.78718
300.017, 977.1,57.21785,0.78719
300.011, 981.1,57.12840,0.78720
300.011, 985.1,57.02515,0.78720
300.022, 989.1,56.91501,0.78719
300.014, 993.1,56.83225,0.78719
300.021, 997.1,56.71298,0.78719
300.002,1001.1,56.62819,0.78720
299.998,1005.1,56.51785,0.78721
300.018,1009.1,56.42150,0.78719
300.01,1013.1,56.35274,0.78720
300.013,1017.1,56.24949,0.78719
300.007,1021.1,56.10487,0.78720
300.015,1025.1,56.02921,0.78719
300.023,1029.1,55.94645,0.78718
300.015,1033.1,55.84320,0.78719
300.016,1037.1,55.75842,0.78719
300.013,1041.1,55.64584,0.78719
300.03,1045.1,55.57708,0.78718
300.022,1049.1,55.45781,0.78719
300.018,1053.1,55.34767,0.78719
300.022,1057.1,55.27870,0.78719
300.018,1061.1,55.14787,0.78719
300.021,1065.1,55.04462,0.78719
300.01,1069.1,55.00345,0.78720
300.021,1073.1,54.87018,0.78719
300.018,1077.1,54.74402,0.78719
300.022,1081.1,54.65680,0.78719
300.006,1085.1,54.56734,0.78720
300.013,1089.1,54.47789,0.78719
300.003,1093.1,54.37465,0.78720
300.027,1097.1,54.25761,0.78718
300.014,1101.1,54.14503,0.78719
300.027,1105.1,54.06024,0.78718
300.029,1109.1,53.95700,0.78718
300.012,1113.1,53.87201,0.78719
300.013,1117.1,53.76187,0.78719
300.019,1121.1,53.67241,0.78719
300.015,1125.1,53.58742,0.78719
300.007,1129.1,53.50020,0.78720
300.013,1133.1,53.38316,0.78719
300.009,1137.1,53.29371,0.78720
300.015,1141.1,53.18134,0.78719
300.013,1145.1,53.09189,0.78719
300.013,1149.1,53.02292,0.78719
300.021,1153.1,52.89899,0.78719
300.023,1157.1,52.80264,0.78718
300.016,1161.1,52.72008,0.78719
300.016,1165.1,52.61217,0.78719
300.021,1169.1,52.54564,0.78719
299.994,1173.1,52.41704,0.78721
300.009,1177.1,52.32759,0.78720
300.015,1181.1,52.24503,0.78719
300.006,1185.1,52.14402,0.78720
300.01,1189.1,52.05456,0.78720
300.017,1193.1,51.95132,0.78719
300.01,1197.1,51.83428,0.78720
300.026,1201.1,51.74706,0.78718
300.031,1205.1,51.57262,0.78718
300.008,1209.1,51.63002,0.78720
300.019,1213.1,51.42799,0.78719
300.005,1217.1,51.31095,0.78720
300.027,1221.1,51.22150,0.78718
300.016,1225.1,51.09533,0.78719
300.018,1229.1,50.97606,0.78719
300.013,1233.1,50.86592,0.78719
300.026,1237.1,50.80385,0.78718
300.016,1241.1,50.70061,0.78719
300.019,1245.1,50.59736,0.78719
300.025,1249.1,50.51237,0.78718
300.02,1253.1,50.44828,0.78719
300.014,1257,50.35862,0.78719

File: ExpDat_2025_08_13_SL_PS_Cup_Lid_Isothermal.csv
#EXPORTTYPE:                 ,DATA ALL
#FILE:                       ,2025_08_13_SL_PS_Cup_Lid_Isothermal.ngb-ss5
#FORMAT:                     ,NETZSCH5
#FTYPE:                      ,ASCII
#IDENTITY:                   ,PS-Cup-Lid
#DECIMAL:                    ,POINT
#SEPARATOR:                  ,COMMA
#MTYPE:                      ,TG
#INSTRUMENT:                 ,NETZSCH STA 449F5
#PROJECT:                    ,
#DATE/TIME:                  ,8/13/2025 8:50:47 AM (UTC-4)
#CORR. FILE:                 ,
#TEMPCAL:                    ,05-05-2025 14:38
#SENSITIVITY:                ,28-06-2023 13:53
#LABORATORY:                 ,Tran/AAG
#OPERATOR:                   ,Stanley
#REMARK:                     ,2025_03_29_SL_005d_M1_isothermal
#SAMPLE:                     ,PS-Cup-Lid
#SAMPLE MASS /mg:            ,5.25
#MATERIAL:                   ,Polystyrene
#REFERENCE:                  ,
#REFERENCE MASS /mg:         ,0
#TYPE OF CRUCIBLE:           ,Al2O3 85 ‘l, open
#SAMPLE CRUCIBLE MASS /mg:   ,0
#REFERENCE CRUCIBLE MASS /mg:,0
#DSC RANGE /‘V:              ,5000
#TG RANGE /mg:               ,35000
#TAU-R:                      ,---
#CORR. CODE:                 ,000
#EXO:                        ,-1
#RANGE:                      ,30›C....800›C/0.0....20.0K/min
#SEGMENT:                    ,S1-5/5
#SEG. 1:                     ,30›C/10.0(K/min)/100›C
#SEG. 2:                     ,100›C/00:10/100›C
#SEG. 3:                     ,100›C/5.0(K/min)/300›C
#SEG. 4:                     ,300›C/20:00/300›C
#SEG. 5:                     ,300›C/20.0(K/min)/800›C

##Temp./›C,Time/min,Mass/%,Sensit./(uV/mW),Segment
 28.60200,   0.00000,    100,0.92329,1
 43.05600,   3.08000,     93.97048,0.92542,1
 72.60200,   6.16000,     95.98533,0.92561,1
 94.29500,   8.10083,     95.72038,0.92234,2
103.191,   9.64083,     94.34971,0.92021,2
108.125,  11.18083,     93.56533,0.91884,2
109.752,  12.72083,     92.58057,0.91835,2
109.371,  14.26083,     91.69276,0.91847,2
107.975,  15.80083,     91.17333,0.91888,2
105.941,  17.72083,     90.85238,0.91946,3
112.238,  20.80083,     92.21638,0.91759,3
127.082,  23.88083,     93.19048,0.91233,3
145.076,  26.96083,     93.63219,0.90444,3
162.737,  30.04083,     93.80019,0.89519,3
179.207,  33.12083,     93.92533,0.88534,3
194.963,  36.20083,     94.03295,0.87490,3
210.391,  39.28083,     94.14933,0.86381,3
225.706,  42.36083,     94.20971,0.85205,3
241.006,  45.44083,     94.23562,0.83964,3
256.365,  48.52083,     94.18381,0.82660,3
271.712,  51.60083,     94.05238,0.81309,3
287.042,  54.68083,     93.87143,0.79919,3
302.548,  58.96083,     92.95771,0.78483,4
301.317,  66.66083,     91.72076,0.78598,4
300.211,  74.36083,     90.98800,0.78701,4
300.035,  82.06083,     90.43219,0.78717,4
300.015,  89.76083,     90.04419,0.78719,4
300.012,  97.46083,     89.74895,0.78719,4
300.018, 105.161,     89.53352,0.78719,4
300.014, 112.861,     89.35886,0.78719,4
300.011, 120.561,     89.24895,0.78720,4
300.018, 128.261,     89.15848,0.78719,4
300.016, 135.961,     89.07886,0.78719,4
300.017, 143.661,     88.99695,0.78719,4
300.018, 151.361,     88.92800,0.78719,4
300.031, 159.061,     88.90000,0.78718,4
300.014, 166.761,     88.80952,0.78719,4
300.028, 174.461,     88.74686,0.78718,4
300.023, 182.161,     88.71238,0.78718,4
300.012, 189.861,     88.63695,0.78719,4
300.011, 197.561,     88.60895,0.78720,4
300.029, 205.261,     88.60895,0.78718,4
300.015, 212.961,     88.57448,0.78719,4
300.007, 220.661,     88.51200,0.78720,4
300.024, 228.361,     88.43657,0.78718,4
299.998, 236.061,     88.36552,0.78721,4
300.02, 243.761,     88.32019,0.78719,4
300.019, 251.461,     88.24267,0.78719,4
300.008, 259.161,     88.17371,0.78720,4
300.001, 266.861,     88.12210,0.78721,4
300.024, 274.561,     88.09390,0.78718,4
300.021, 282.261,     88.03581,0.78719,4
300.015, 289.961,     87.93886,0.78719,4
300.011, 297.661,     87.88057,0.78720,4
300.013, 305.361,     87.81162,0.78719,4
300.021, 313.061,     87.77943,0.78719,4
300.004, 320.761,     87.77505,0.78720,4
300.018, 328.461,     87.74705,0.78719,4
300.023, 336.161,     87.72552,0.78718,4
300.024, 343.861,     87.73619,0.78718,4
300.018, 351.561,     87.71695,0.78719,4
300.011, 359.261,     87.71695,0.78720,4
300.026, 366.961,     87.63505,0.78718,4
300.024, 374.661,     87.66076,0.78718,4
300.015, 382.361,     87.64571,0.78719,4
300.029, 390.061,     87.62629,0.78718,4
300.005, 397.761,     87.56171,0.78720,4
300.012, 405.461,     87.50362,0.78719,4
300.006, 413.161,     87.45181,0.78720,4
300.015, 420.861,     87.37638,0.78719,4
300.017, 428.561,     87.31600,0.78719,4
300.032, 436.261,     87.27943,0.78718,4
300.014, 443.961,     87.18895,0.78719,4
300.002, 451.661,     87.13295,0.78720,4
300.025, 459.361,     87.14590,0.78718,4
300.025, 467.061,     87.15238,0.78718,4
300.022, 474.761,     87.14152,0.78719,4
300.011, 482.461,     87.10914,0.78720,4
300.019, 490.161,     87.05105,0.78719,4
300.013, 497.861,     87.01429,0.78719,4
300.02, 505.561,     86.97771,0.78719,4
300.011, 513.261,     86.93257,0.78720,4
300.022, 520.961,     86.88933,0.78719,4
300.015, 528.661,     86.86990,0.78719,4
300.021, 536.361,     86.79029,0.78719,4
300.005, 544.061,     86.77733,0.78720,4
300.006, 551.761,     86.75790,0.78720,4
300.01, 559.461,     86.72990,0.78720,4
300.016, 567.161,     86.69752,0.78719,4
300.034, 574.861,     86.68686,0.78717,4
300.025, 582.561,     86.64152,0.78718,4
300.015, 590.261,     86.65029,0.78719,4
300.015, 597.961,     86.61562,0.78719,4
300.01, 605.661,     86.59638,0.78720,4
300.008, 613.361,     86.58762,0.78720,4
300.014, 621.061,     86.54895,0.78719,4
300.021, 628.761,     86.53600,0.78719,4
300.02, 636.461,     86.52743,0.78719,4
300.013, 644.161,     86.50362,0.78719,4
300.013, 651.861,     86.46705,0.78719,4
300.004, 659.561,     86.46705,0.78720,4
300.016, 667.261,     86.45410,0.78719,4
300.021, 674.961,     86.42819,0.78719,4
300.016, 682.661,     86.41962,0.78719,4
300.012, 690.361,     86.38724,0.78719,4
300.015, 698.061,     86.37219,0.78719,4
300.021, 705.761,     86.38076,0.78719,4
300.025, 713.461,     86.34857,0.78718,4
300.016, 721.161,     86.34210,0.78719,4
300.022, 728.861,     86.32914,0.78719,4
300.007, 736.561,     86.29029,0.78720,4
300.018, 744.261,     86.32267,0.78719,4
300.008, 751.961,     86.30324,0.78720,4
300.009, 759.661,     86.28610,0.78720,4
300.002, 767.361,     86.26019,0.78720,4
300.009, 775.061,     86.24076,0.78720,4
300.023, 782.761,     86.20190,0.78718,4
300.018, 790.461,     86.18895,0.78719,4
300.017, 798.161,     86.16971,0.78719,4
300.013, 805.861,     86.15676,0.78719,4
300.014, 813.561,     86.15676,0.78719,4
300.022, 821.261,     86.13733,0.78719,4
300.011, 828.961,     86.11790,0.78720,4
300.009, 836.661,     86.06838,0.78720,4
300.014, 844.361,     86.04457,0.78719,4
300.026, 852.061,     86.02533,0.78718,4
300.012, 859.761,     86.04457,0.78719,4
300.016, 867.461,     85.99295,0.78719,4
299.997, 875.161,     85.96495,0.78721,4
300.029, 882.861,     85.97143,0.78718,4
300.014, 890.561,     85.93905,0.78719,4
300.024, 898.261,     85.89390,0.78718,4
300.01, 905.961,     85.87867,0.78720,4
300.007, 913.661,     85.89162,0.78720,4
299.99, 921.361,     85.84648,0.78722,4
300.021, 929.061,     85.80762,0.78719,4
300.019, 936.761,     85.81410,0.78719,4
300.006, 944.461,     85.82267,0.78720,4
[...]
300.027,1059.96,     85.51029,0.78718,4
300.018,1067.66,     85.51676,0.78719,4
300.011,1075.36,     85.49943,0.78720,4
300.019,1083.06,     85.45200,0.78719,4
300.014,1090.76,     85.43257,0.78719,4
300.021,1098.46,     85.40686,0.78719,4
300.001,1106.16,     85.39390,0.78721,4
300.021,1113.86,     85.38095,0.78719,4
300.009,1121.56,     85.36800,0.78720,4
300.031,1129.26,     85.32705,0.78718,4
300.018,1136.96,     85.34648,0.78719,4
300.014,1144.66,     85.29905,0.78719,4
300.014,1152.36,     85.27314,0.78719,4
300.013,1160.06,     85.27962,0.78719,4
300.014,1167.76,     85.26667,0.78719,4
300.021,1175.46,     85.24095,0.78719,4
300.014,1183.16,     85.21924,0.78719,4
300.005,1190.86,     85.20648,0.78720,4
300.024,1198.56,     85.20648,0.78718,4
300.01,1206.26,     85.20648,0.78720,4
300.013,1213.96,     85.17410,0.78719,4
300.006,1221.66,     85.16552,0.78720,4
300.017,1229.36,     85.14819,0.78719,4
300.03,1237.06,     85.12876,0.78718,4
300.022,1244.76,     85.12457,0.78719,4
300.009,1252.46,     85.13752,0.78720,4
300.047,1257.12,     85.11371,0.78716,5
301.511,1257.51,     85.57067,0.78580,5
305.898,1257.89,     86.34210,0.78169,5
312.451,1258.28,     86.90229,0.77553,5
319.507,1258.66,     87.16095,0.76886,5
326.197,1259.05,     87.24495,0.76251,5
332.677,1259.43,     87.34838,0.75634,5
339.546,1259.82,     87.51010,0.74979,5
347.083,1260.2,     87.71257,0.74260,5
355.176,1260.59,     87.90876,0.73487,5
363.512,1260.97,     88.01638,0.72693,5
371.851,1261.36,     88.09390,0.71901,5
380.168,1261.74,     88.14571,0.71114,5
388.504,1262.13,     88.12629,0.70329,5
396.9,1262.51,     87.97124,0.69545,5
405.32,1262.9,     87.51429,0.68764,5
413.71,1263.28,     86.25581,0.67993,5
422.059,1263.67,     83.79714,0.67235,5
430.349,1264.05,     78.96781,0.66489,5
438.587,1264.44,     70.18438,0.65758,5
446.741,1264.82,     55.16229,0.65044,5
454.886,1265.21,     37.36267,0.64341,5
463.02,1265.59,     21.28457,0.63649,5
471.12,1265.98,     10.12419,0.62970,5
479.172,1266.36,      3.94819,0.62307,5
487.158,1266.75,      0.73086,0.61661,5
495.12,1267.13,     -0.98000,0.61028,5
503.064,1267.52,     -1.59219,0.60408,5
510.978,1267.9,     -1.67619,0.59802,5
518.877,1268.29,     -1.59848,0.59209,5
526.737,1268.67,     -1.54686,0.58631,5
534.582,1269.06,     -1.44343,0.58066,5
542.394,1269.44,     -1.36590,0.57516,5
550.172,1269.83,     -1.28819,0.56979,5
557.941,1270.21,     -1.21067,0.56454,5
565.71,1270.6,     -1.10724,0.55941,5
573.479,1270.98,     -1.02971,0.55440,5
581.242,1271.37,     -0.92629,0.54950,5
589.006,1271.75,     -0.87448,0.54471,5
596.762,1272.14,     -0.81638,0.54003,5
604.501,1272.52,     -0.71943,0.53547,5
612.245,1272.91,     -0.69352,0.53101,5
619.995,1273.29,     -0.64171,0.52665,5
627.751,1273.68,     -0.62876,0.52238,5
635.487,1274.06,     -0.62876,0.51822,5
643.227,1274.45,     -0.64171,0.51415,5
650.983,1274.83,     -0.69352,0.51015,5
658.739,1275.22,     -0.75810,0.50624,5
666.482,1275.6,     -0.78838,0.50242,5
674.225,1275.99,     -0.81410,0.49868,5
681.953,1276.37,     -0.86590,0.49501,5
689.699,1276.76,     -0.84000,0.49140,5
697.459,1277.14,     -0.81410,0.48786,5
705.223,1277.53,     -0.73448,0.48436,5
712.975,1277.91,     -0.65257,0.48093,5
720.739,1278.3,     -0.57505,0.47755,5
728.507,1278.68,     -0.49733,0.47421,5
736.272,1279.07,     -0.44571,0.47091,5
744.007,1279.45,     -0.36800,0.46767,5
751.758,1279.84,     -0.29048,0.46445,5
759.539,1280.22,     -0.21295,0.46124,5
767.297,1280.61,     -0.10952,0.45807,5
775.054,1280.99,-5.771429e-02,0.45493,5
782.792,1281.38, 2.190476e-02,0.45180,5
790.516,1281.76, 8.666667e-02,0.44869,5
794.536,1281.96,      0.11238,0.44708,5