Folder: data-visualizer/data/TGA/commercial_samples (part 12)

File: ExpDat_2025_09_15_SL_PS_Petri-Dish-SCF3_Dynamic_P5EER7_V1_2.csv
#EXPORTTYPE:                 ,DATA ALL
#FILE:                       ,2025_09_15_SL_PS_Petri-Dish-SCF3_Dynamic_P5EER7_V1_2.ngb-ss5
#FORMAT:                     ,NETZSCH5
#FTYPE:                      ,ASCII
#IDENTITY:                   ,P5-EE-R7-V1+2
#DECIMAL:                    ,POINT
#SEPARATOR:                  ,COMMA
#MTYPE:                      ,DSC
#INSTRUMENT:                 ,NETZSCH STA 449F5
#PROJECT:                    ,PS-SCF3
#DATE/TIME:                  ,9/15/2025 7:24:08 PM (UTC-4)
#CORR. FILE:                 ,
#TEMPCAL:                    ,05-05-2025 14:38
#SENSITIVITY:                ,28-06-2023 13:53
#LABORATORY:                 ,Tran
#OPERATOR:                   ,Stanley
#REMARK:                     ,2025_03_20_Styrofoam_dynamic
#SAMPLE:                     ,P5-EE-R7-V1+2
#SAMPLE MASS /mg:            ,4.83
#MATERIAL:                   ,Polystyrene
#REFERENCE:                  ,
#REFERENCE MASS /mg:         ,0
#TYPE OF CRUCIBLE:           ,Al2O3 85 ‘l, open
#SAMPLE CRUCIBLE MASS /mg:   ,0
#REFERENCE CRUCIBLE MASS /mg:,0
#DSC RANGE /‘V:              ,5000
#TG RANGE /mg:               ,35000
#TAU-R:                      ,---
#CORR. CODE:                 ,000
#EXO:                        ,-1
#RANGE:                      ,20›C....800›C/0.0....20.0K/min
#SEGMENT:                    ,S1-4/4
#SEG. 1:                     ,20›C/5.0(K/min)/100›C
#SEG. 2:                     ,100›C/00:05/100›C
#SEG. 3:                     ,100›C/1.0(K/min)/400›C
#SEG. 4:                     ,400›C/20.0(K/min)/800›C

##Temp./›C,Time/min,DSC/(mW/mg),Mass/%,Gas Flow(purge2)/(ml/min),Gas Flow(protective)/(ml/min),TIC(scan:1)/A,Sensit./(uV/mW),Segment
 40.57000,  0.00000,      0.62729,    100,50.00000,53.00000,            ,0.92515,1
 55.05000,  5.00000,-4.587865e-02,     85.28323,50.00000,48.00000,6.573732e-09,0.92609,1
 53.17200, 10.00000, 2.353767e-02,     85.19193,50.00000,48.00000,6.615601e-09,0.92616,1
 79.05100, 15.00000,      0.36308,     89.37764,50.00000,48.00000,6.628939e-09,0.92615,1
101.5, 19.00000,      0.22939,     88.54369,50.00000,48.00000,6.644273e-09,0.92611,2
106.832, 23.33333, 2.886938e-02,     86.95321,50.00000,48.00000,6.630799e-09,0.92607,3
108.316, 28.33333, 2.785133e-02,     86.59482,50.00000,48.00000,6.651775e-09,0.92618,3
111.806, 33.33333, 6.196313e-02,     86.61594,50.00000,48.00000,6.653157e-09,0.92602,3
116.689, 38.33333, 7.758834e-02,     86.63230,50.00000,48.00000,6.643678e-09,0.92487,3
121.831, 43.33333, 7.756937e-02,     86.64182,50.00000,48.00000,6.650037e-09,0.92281,3
126.919, 48.33333, 7.721407e-02,     86.63934,50.00000,48.00000,6.644173e-09,0.92124,3
131.952, 53.33333, 7.599901e-02,     86.65342,50.00000,48.00000,6.656010e-09,0.92014,3
136.935, 58.33333, 7.496112e-02,     86.70269,50.00000,48.00000,6.657108e-09,0.91953,3
141.929, 63.33333, 7.741595e-02,     86.80104,50.00000,48.00000,6.639086e-09,0.91921,3
146.924, 68.33333, 7.779597e-02,     86.86667,50.00000,48.00000,6.640821e-09,0.91908,3
151.955, 73.33333, 7.696266e-02,     86.93913,50.00000,48.00000,6.649469e-09,0.91892,3
156.955, 78.33333, 7.525401e-02,     86.99317,50.00000,48.00000,6.649568e-09,0.91865,3
161.961, 83.33333, 7.266300e-02,     87.03520,50.00000,48.00000,6.626729e-09,0.91828,3
166.958, 88.33333, 6.935654e-02,     87.10083,50.00000,48.00000,6.624615e-09,0.91779,3
171.953, 93.33333, 6.284139e-02,     87.15714,50.00000,48.00000,6.630712e-09,0.91719,3
176.941, 98.33333, 5.593282e-02,     87.18054,50.00000,48.00000,6.622768e-09,0.91657,3
181.94,103.333, 4.612213e-02,     87.22257,50.00000,48.00000,6.625464e-09,0.91588,3
186.944,108.333, 3.391248e-02,     87.23665,50.00000,48.00000,6.609959e-09,0.91519,3
191.959,113.333, 1.891263e-02,     87.28592,50.00000,48.00000,6.627532e-09,0.91445,3
196.944,118.333, 1.989124e-03,     87.29752,50.00000,48.00000,6.612542e-09,0.91372,3
201.963,123.333,-1.634110e-02,     87.30932,50.00000,48.00000,6.619621e-09,0.91294,3
206.956,128.333,-3.555364e-02,     87.29524,50.00000,48.00000,6.628743e-09,0.91218,3
211.943,133.333,-5.346746e-02,     87.31636,50.00000,48.00000,6.624990e-09,0.91137,3
216.935,138.333,-7.430110e-02,     87.27412,50.00000,48.00000,6.614143e-09,0.91058,3
221.941,143.333,-9.366592e-02,     87.26708,50.00000,48.00000,6.623403e-09,0.90973,3
226.946,148.333,     -0.11377,     87.22257,50.00000,48.00000,6.631029e-09,0.90888,3
231.946,153.333,     -0.13538,     87.18509,50.00000,48.00000,6.625045e-09,0.90803,3
236.929,158.333,     -0.15571,     87.12195,50.00000,48.00000,6.615160e-09,0.90712,3
241.943,163.333,     -0.17474,     87.03996,50.00000,48.00000,6.628051e-09,0.90624,3
246.929,168.333,     -0.19719,     86.92526,50.00000,48.00000,6.609801e-09,0.90531,3
251.93,173.333,     -0.21856,     86.84783,50.00000,48.00000,6.631766e-09,0.90437,3
256.934,178.333,     -0.24054,     86.77764,50.00000,48.00000,6.605945e-09,0.90340,3
261.928,183.333,     -0.24720,     86.66522,50.00000,48.00000,6.614900e-09,0.90240,3
266.925,188.333,     -0.27153,     86.59255,50.00000,48.00000,6.624400e-09,0.90142,3
271.916,193.333,     -0.28953,     86.52692,50.00000,48.00000,6.620985e-09,0.90039,3
276.938,198.333,     -0.31889,     86.45901,50.00000,48.00000,6.607035e-09,0.89937,3
281.929,203.333,     -0.34957,     86.37246,50.00000,48.00000,6.616253e-09,0.89830,3
286.923,208.333,     -0.38220,     86.27391,50.00000,48.00000,6.599904e-09,0.89725,3
291.913,213.333,     -0.41362,     86.19441,50.00000,48.00000,6.600186e-09,0.89615,3
296.926,218.333,     -0.44864,     86.06087,50.00000,48.00000,6.617098e-09,0.89507,3
301.914,223.333,     -0.48066,     85.94369,50.00000,48.00000,6.602456e-09,0.89393,3
306.919,228.333,     -0.51511,     85.79151,50.00000,48.00000,6.609201e-09,0.89281,3
311.935,233.333,     -0.55101,     85.57371,50.00000,48.00000,6.595907e-09,0.89165,3
316.94,238.333,     -0.58531,     85.32774,50.00000,48.00000,6.594036e-09,0.89050,3
321.921,243.333,     -0.61859,     84.97867,50.00000,48.00000,6.590796e-09,0.88928,3
326.927,248.333,     -0.65666,     84.53375,50.00000,48.00000,6.596049e-09,0.88810,3
331.911,253.333,     -0.68894,     83.90828,50.00000,48.00000,6.592810e-09,0.88688,3
336.93,258.333,     -0.72146,     83.08385,50.00000,48.00000,6.587034e-09,0.88567,3
341.924,263.333,     -0.75247,     81.85880,50.00000,48.00000,6.603455e-09,0.88441,3
346.915,268.333,     -0.78027,     80.06211,50.00000,48.00000,6.594102e-09,0.88313,3
351.934,273.333,     -0.80802,     77.46915,50.00000,48.00000,6.583996e-09,0.88187,3
356.932,278.333,     -0.84753,     73.66066,50.00000,48.00000,6.602285e-09,0.88055,3
361.926,283.333,     -0.91248,     68.29213,50.00000,48.00000,6.591510e-09,0.87926,3
366.911,288.333,     -0.96103,     60.72174,50.00000,48.00000,6.595625e-09,0.87792,3
371.918,293.333,     -0.97134,     50.74803,50.00000,48.00000,6.588325e-09,0.87657,3
376.928,298.333,     -1.03883,     38.45093,50.00000,48.00000,6.586283e-09,0.87523,3
381.918,303.333,     -1.04328,     24.74141,50.00000,48.00000,6.587083e-09,0.87385,3
386.928,308.333,     -1.16658,     11.74617,50.00000,48.00000,6.594476e-09,0.87244,3
391.921,313.333,     -1.35962,      1.88261,50.00000,48.00000,6.591493e-09,0.87103,3
396.928,318.333,     -1.57477,     -3.96377,50.00000,48.00000,6.585791e-09,0.86959,3
399.841,321.175,     -1.73735,     -5.91014,50.00000,48.00000,6.577055e-09,0.86883,4
[...]
473.166,325.3,      1.38288,     -6.94327,50.00000,48.00000,6.572439e-09,0.86761,4
480.927,325.675,      1.34113,     -6.88696,50.00000,48.00000,6.591240e-09,0.86752,4
488.787,326.05,      1.33261,     -6.81677,50.00000,48.00000,6.584650e-09,0.86743,4
496.698,326.425,      1.31494,     -6.73230,50.00000,48.00000,6.597365e-09,0.86732,4
504.591,326.8,      1.27462,     -6.67619,50.00000,48.00000,6.586664e-09,0.86718,4
512.491,327.175,      1.21761,     -6.59193,50.00000,48.00000,6.575023e-09,0.86708,4
520.367,327.55,      1.15945,     -6.53561,50.00000,48.00000,6.580713e-09,0.86698,4
528.217,327.925,      1.08906,     -6.47930,50.00000,48.00000,6.586883e-09,0.86688,4
536.043,328.3,      1.02194,     -6.42319,50.00000,48.00000,6.578790e-09,0.86673,4
543.875,328.675,      0.95690,     -6.34596,50.00000,48.00000,6.574155e-09,0.86664,4
551.681,329.05,      0.88400,     -6.28261,50.00000,48.00000,6.593642e-09,0.86655,4
559.435,329.425,      0.81061,     -6.22650,50.00000,48.00000,6.592745e-09,0.86644,4
567.204,329.8,      0.74137,     -6.17019,50.00000,48.00000,6.599913e-09,0.86635,4
574.953,330.175,      0.66984,     -6.11408,50.00000,48.00000,6.582816e-09,0.86621,4
582.663,330.55,      0.60263,     -6.08592,50.00000,48.00000,6.577847e-09,0.86611,4
590.387,330.925,      0.54457,     -6.05072,50.00000,48.00000,6.586176e-09,0.86601,4
598.105,331.3,      0.48627,     -6.00166,50.00000,48.00000,6.586840e-09,0.86592,4
605.782,331.675,      0.42863,     -5.97101,50.00000,48.00000,6.588026e-09,0.86582,4
613.447,332.05,      0.38036,     -5.99917,50.00000,48.00000,6.587577e-09,0.86567,4
621.112,332.425,      0.32341,     -5.97101,50.00000,48.00000,6.583162e-09,0.86557,4
628.768,332.8,      0.25730,     -5.97101,50.00000,48.00000,6.585728e-09,0.86547,4
636.407,333.175,      0.17848,     -5.97101,50.00000,48.00000,6.586210e-09,0.86537,4
644.03,333.55, 8.609281e-02,     -5.94306,50.00000,48.00000,6.596169e-09,0.86528,4
651.647,333.925, 3.718016e-03,     -5.91491,50.00000,48.00000,6.583001e-09,0.86513,4
659.264,334.3,-5.993884e-02,     -5.86563,50.00000,48.00000,6.582466e-09,0.86503,4
666.881,334.675,     -0.12360,     -5.80952,50.00000,48.00000,6.581156e-09,0.86493,4
674.485,335.05,     -0.18471,     -5.76025,50.00000,48.00000,6.601498e-09,0.86483,4
682.086,335.425,     -0.23999,     -5.70414,50.00000,48.00000,6.596079e-09,0.86468,4
689.68,335.8,     -0.29797,     -5.61967,50.00000,48.00000,6.587291e-09,0.86459,4
697.249,336.175,     -0.35480,     -5.59172,50.00000,48.00000,6.582278e-09,0.86449,4
704.84,336.55,     -0.41304,     -5.53540,50.00000,48.00000,6.577510e-09,0.86439,4
712.432,336.925,     -0.47469,     -5.47930,50.00000,48.00000,6.581824e-09,0.86430,4
720.028,337.3,     -0.54145,     -5.42298,50.00000,48.00000,6.597038e-09,0.86415,4
727.621,337.675,     -0.61108,     -5.36439,50.00000,48.00000,6.588880e-09,0.86404,4
735.217,338.05,     -0.68765,     -5.30828,50.00000,48.00000,6.584730e-09,0.86394,4
742.796,338.425,     -0.77702,     -5.24741,50.00000,48.00000,6.580395e-09,0.86385,4
750.358,338.8,     -0.87840,     -5.19814,50.00000,48.00000,6.589096e-09,0.86374,4
757.928,339.175,     -0.98933,     -5.16294,50.00000,48.00000,6.588350e-09,0.86358,4
765.472,339.55,     -1.10202,     -5.10683,50.00000,48.00000,6.602073e-09,0.86349,4
773.061,339.925,     -1.22455,     -5.06460,50.00000,48.00000,6.571486e-09,0.86340,4
780.641,340.3,     -1.35567,     -4.99441,50.00000,48.00000,6.587491e-09,0.86330,4
788.186,340.675,     -1.49236,     -4.96625,50.00000,48.00000,6.594438e-09,0.86320,4
794.726,341,     -1.61386,     -4.88199,50.00000,48.00000,            ,0.44700,4