Folder: data-visualizer/data/TGA/commercial_samples (part 6)

File: ExpDat_2025_08_15_SL_PS_Container_Isothermal.csv
#EXPORTTYPE:                 ,DATA ALL
#FILE:                       ,2025_08_15_SL_PS_Container_Isothermal.ngb-ss5
#FORMAT:                     ,NETZSCH5
#FTYPE:                      ,ASCII
#IDENTITY:                   ,PS-Container
#DECIMAL:                    ,POINT
#SEPARATOR:                  ,COMMA
#MTYPE:                      ,TG
#INSTRUMENT:                 ,NETZSCH STA 449F5
#PROJECT:                    ,
#DATE/TIME:                  ,8/15/2025 9:51:52 AM (UTC-4)
#CORR. FILE:                 ,
#TEMPCAL:                    ,05-05-2025 14:38
#SENSITIVITY:                ,28-06-2023 13:53
#LABORATORY:                 ,Tran/AAG
#OPERATOR:                   ,Stanley
#REMARK:                     ,2025_03_29_SL_005d_M1_isothermal
#SAMPLE:                     ,PS-Container
#SAMPLE MASS /mg:            ,4.91
#MATERIAL:                   ,Polystyrene
#REFERENCE:                  ,
#REFERENCE MASS /mg:         ,0
#TYPE OF CRUCIBLE:           ,Al2O3 85 ‘l, open
#SAMPLE CRUCIBLE MASS /mg:   ,0
#REFERENCE CRUCIBLE MASS /mg:,0
#DSC RANGE /‘V:              ,5000
#TG RANGE /mg:               ,35000
#TAU-R:                      ,---
#CORR. CODE:                 ,000
#EXO:                        ,-1
#RANGE:                      ,30›C....800›C/0.0....20.0K/min
#SEGMENT:                    ,S1-5/5
#SEG. 1:                     ,30›C/10.0(K/min)/100›C
#SEG. 2:                     ,100›C/00:10/100›C
#SEG. 3:                     ,100›C/5.0(K/min)/300›C
#SEG. 4:                     ,300›C/20:00/300›C
#SEG. 5:                     ,300›C/20.0(K/min)/800›C

##Temp./›C,Time/min,Mass/%,Sensit./(uV/mW),Segment
 25.63600,   0.00000,    100,0.92268,1
 41.55800,   3.04000,     92.38024,0.92526,1
 70.68000,   6.08000,     94.80407,0.92576,1
 93.21300,   8.05917,     94.73951,0.92257,2
102.587,   9.57917,     93.16130,0.92037,2
107.907,  11.09917,     92.17963,0.91890,2
109.875,  12.61917,     91.11752,0.91832,2
109.703,  14.13917,     90.28574,0.91837,2
108.393,  15.65917,     89.43075,0.91876,2
106.421,  17.35917,     88.94705,0.91933,3
110.711,  20.39917,     90.38473,0.91806,3
124.302,  23.43917,     91.61283,0.91340,3
141.871,  26.47917,     92.19572,0.90596,3
159.559,  29.51917,     92.38941,0.89696,3
176.061,  32.55917,     92.54134,0.88731,3
191.731,  35.59917,     92.66354,0.87712,3
207.007,  38.63917,     92.80183,0.86631,3
222.126,  41.67917,     92.91242,0.85486,3
237.234,  44.71917,     93.05295,0.84275,3
252.364,  47.75917,     93.17047,0.83004,3
267.522,  50.79917,     93.19124,0.81682,3
282.669,  53.83917,     93.10143,0.80319,3
297.794,  56.87917,     92.79715,0.78926,3
302.159,  64.29917,     90.83401,0.78519,4
300.386,  71.89917,     89.56680,0.78685,4
300.055,  79.49917,     88.67271,0.78715,4
300.01,  87.09917,     87.91466,0.78720,4
300.001,  94.69917,     87.35255,0.78721,4
300.018, 102.299,     86.83401,0.78719,4
300.018, 109.899,     86.39389,0.78719,4
300.018, 117.499,     86.00448,0.78719,4
300.01, 125.099,     85.66578,0.78720,4
300.02, 132.699,     85.35479,0.78719,4
300.015, 140.299,     85.06904,0.78719,4
300.018, 147.899,     84.76253,0.78719,4
300.018, 155.499,     84.53910,0.78719,4
300.009, 163.099,     84.27189,0.78720,4
300.025, 170.699,     84.00916,0.78718,4
300.003, 178.299,     83.79491,0.78720,4
300.003, 185.899,     83.53218,0.78720,4
300.012, 193.499,     83.27882,0.78719,4
300.005, 201.099,     83.14501,0.78720,4
300.02, 208.699,     82.97923,0.78719,4
300.011, 216.299,     82.76497,0.78720,4
300.011, 223.899,     82.58289,0.78720,4
300.015, 231.499,     82.28106,0.78719,4
300.007, 239.099,     81.99756,0.78720,4
300.018, 246.699,     81.76721,0.78719,4
300.013, 254.299,     81.57597,0.78719,4
300.011, 261.899,     81.40081,0.78720,4
300.029, 269.499,     81.23951,0.78718,4
300.03, 277.099,     81.04379,0.78718,4
300.011, 284.699,     80.83177,0.78720,4
300.011, 292.299,     80.75560,0.78720,4
300.017, 299.899,     80.65193,0.78719,4
300.006, 307.499,     80.50224,0.78720,4
300.011, 315.099,     80.29715,0.78720,4
300.008, 322.699,     80.09674,0.78720,4
300.019, 330.299,     79.91466,0.78719,4
300.003, 337.899,     79.71202,0.78720,4
300.012, 345.499,     79.50916,0.78719,4
300.025, 353.099,     79.31324,0.78718,4
300.009, 360.699,     79.15438,0.78720,4
300.005, 368.299,     78.94460,0.78720,4
300.017, 375.899,     78.80631,0.78719,4
300.011, 383.499,     78.62668,0.78720,4
300.007, 391.099,     78.48147,0.78720,4
300.021, 398.699,     78.31792,0.78719,4
300.003, 406.299,     78.15438,0.78720,4
300.022, 413.899,     77.99756,0.78719,4
300, 421.499,     77.82485,0.78721,4
300.017, 429.099,     77.66354,0.78719,4
300.018, 436.699,     77.50224,0.78719,4
300.027, 444.299,     77.31568,0.78718,4
300.016, 451.899,     77.17495,0.78719,4
300.007, 459.499,     77.03686,0.78720,4
300.006, 467.099,     76.86864,0.78720,4
300.024, 474.699,     76.69572,0.78718,4
300.025, 482.299,     76.54134,0.78718,4
300.032, 489.899,     76.38248,0.78718,4
300.03, 497.499,     76.25336,0.78718,4
300.012, 505.099,     76.10122,0.78719,4
300.025, 512.699,     75.94929,0.78718,4
300.01, 520.299,     75.82485,0.78720,4
300.004, 527.899,     75.66130,0.78720,4
300.01, 535.499,     75.50224,0.78720,4
300.005, 543.099,     75.35947,0.78720,4
300.026, 550.699,     75.23727,0.78718,4
300.023, 558.299,     75.11752,0.78718,4
300.015, 565.899,     74.94460,0.78719,4
300.011, 573.499,     74.79715,0.78720,4
300.023, 581.099,     74.65438,0.78718,4
300.007, 588.699,     74.53686,0.78720,4
300.026, 596.299,     74.38004,0.78718,4
300.012, 603.899,     74.22811,0.78719,4
300.027, 611.499,     74.08065,0.78718,4
300.01, 619.099,     73.94236,0.78720,4
300.011, 626.699,     73.79715,0.78720,4
300.009, 634.299,     73.66354,0.78720,4
300.013, 641.899,     73.51609,0.78719,4
300.019, 649.499,     73.38697,0.78719,4
300.009, 657.099,     73.24644,0.78720,4
300.025, 664.699,     73.09430,0.78718,4
300.014, 672.299,     72.96314,0.78719,4
300.007, 679.899,     72.81568,0.78720,4
300.011, 687.499,     72.67271,0.78720,4
300.005, 695.099,     72.54134,0.78720,4
300.011, 702.699,     72.38697,0.78720,4
300.012, 710.299,     72.24196,0.78719,4
300.012, 717.899,     72.13585,0.78719,4
300.019, 725.499,     72.00000,0.78719,4
300.022, 733.099,     71.86171,0.78719,4
300.022, 740.699,     71.74196,0.78719,4
300.002, 748.299,     71.57373,0.78720,4
300.02, 755.899,     71.46069,0.78719,4
300.013, 763.499,     71.32240,0.78719,4
300.019, 771.099,     71.17963,0.78719,4
300.019, 778.699,     71.03442,0.78719,4
300.016, 786.299,     70.90305,0.78719,4
300.017, 793.899,     70.73727,0.78719,4
300.013, 801.499,     70.63360,0.78719,4
300.013, 809.099,     70.46069,0.78719,4
300.012, 816.699,     70.37556,0.78719,4
300.022, 824.299,     70.20489,0.78719,4
300.026, 831.899,     70.06904,0.78718,4
300.017, 839.499,     69.96314,0.78719,4
300.01, 847.099,     69.81792,0.78720,4
300.018, 854.699,     69.65193,0.78719,4
300.013, 862.299,     69.50224,0.78719,4
300.01, 869.899,     69.38697,0.78720,4
300.021, 877.499,     69.20733,0.78719,4
300.02, 885.099,     69.08289,0.78719,4
300.018, 892.699,     68.92383,0.78719,4
300.017, 900.299,     68.77189,0.78719,4
300.018, 907.899,     68.64501,0.78719,4
300.009, 915.499,     68.51609,0.78720,4
300.012, 923.099,     68.36619,0.78719,4
300.021, 930.699,     68.24175,0.78719,4
[...]
300.014,1067.5,     65.59206,0.78719,4
300.014,1075.1,     65.45377,0.78719,4
300.014,1082.7,     65.32016,0.78719,4
300.008,1090.3,     65.16802,0.78720,4
300.018,1097.9,     65.04358,0.78719,4
300.013,1105.5,     64.89165,0.78719,4
300.013,1113.1,     64.74644,0.78719,4
300.023,1120.7,     64.58289,0.78718,4
300.023,1128.3,     64.47923,0.78718,4
300.01,1135.9,     64.30631,0.78720,4
300.012,1143.5,     64.19572,0.78719,4
300.021,1151.1,     64.05743,0.78719,4
300.02,1158.7,     63.90550,0.78719,4
300.026,1166.3,     63.78330,0.78718,4
300.027,1173.9,     63.61059,0.78718,4
299.999,1181.5,     63.47678,0.78721,4
300.025,1189.1,     63.32485,0.78718,4
300.014,1196.7,     63.20733,0.78719,4
300.01,1204.3,     63.04358,0.78720,4
300.01,1211.9,     62.92607,0.78720,4
300.01,1219.5,     62.77413,0.78720,4
300.02,1227.1,     62.63809,0.78719,4
300.024,1234.7,     62.46986,0.78718,4
300.017,1242.3,     62.31792,0.78719,4
300.012,1249.9,     62.20041,0.78719,4
300.018,1257.02,     62.05743,0.78719,5
300.645,1257.4,     62.25336,0.78660,5
303.891,1257.78,     63.02994,0.78357,5
309.717,1258.16,     63.73035,0.77810,5
316.619,1258.54,     64.12424,0.77159,5
323.354,1258.92,     64.23951,0.76521,5
329.708,1259.3,     64.29491,0.75917,5
336.225,1259.68,     64.40550,0.75296,5
343.362,1260.06,     64.55988,0.74615,5
351.145,1260.44,     64.71874,0.73872,5
359.3,1260.82,     64.77413,0.73094,5
367.532,1261.2,     64.69124,0.72311,5
375.758,1261.58,     64.42383,0.71530,5
383.985,1261.96,     63.85479,0.70754,5
392.257,1262.34,     62.71874,0.69978,5
400.576,1262.72,     60.67271,0.69203,5
408.899,1263.1,     57.29715,0.68434,5
417.178,1263.48,     51.79470,0.67677,5
425.412,1263.86,     42.94216,0.66932,5
433.574,1264.24,     30.54582,0.66202,5
441.704,1264.62,     16.22566,0.65484,5
449.764,1265,      4.62424,0.64782,5
457.797,1265.38,     -1.40346,0.64092,5
465.832,1265.76,     -3.39430,0.63412,5
473.853,1266.14,     -3.98411,0.62744,5
481.793,1266.52,     -4.17312,0.62094,5
489.684,1266.9,     -4.18004,0.61459,5
497.541,1267.28,     -4.14542,0.60838,5
505.361,1267.66,     -4.11772,0.60231,5
513.144,1268.04,     -4.00489,0.59639,5
520.905,1268.42,     -3.92200,0.59059,5
528.638,1268.8,     -3.81813,0.58493,5
536.351,1269.18,     -3.75601,0.57941,5
544.066,1269.56,     -3.67312,0.57399,5
551.764,1269.94,     -3.60387,0.56870,5
559.433,1270.32,     -3.50713,0.56355,5
567.093,1270.7,     -3.42424,0.55851,5
574.757,1271.08,     -3.32749,0.55358,5
582.443,1271.46,     -3.26986,0.54875,5
590.112,1271.84,     -3.21446,0.54403,5
597.772,1272.22,     -3.13157,0.53943,5
605.44,1272.6,     -3.05560,0.53492,5
613.093,1272.98,     -2.99328,0.53053,5
620.746,1273.36,     -2.91039,0.52623,5
628.398,1273.74,     -2.82749,0.52203,5
636.033,1274.12,     -2.75825,0.51793,5
643.685,1274.5,     -2.69613,0.51391,5
651.335,1274.88,     -2.64766,0.50997,5
658.985,1275.26,     -2.57862,0.50612,5
666.612,1275.64,     -2.51874,0.50236,5
674.225,1276.02,     -2.46334,0.49868,5
681.869,1276.4,     -2.38045,0.49505,5
689.521,1276.78,     -2.32505,0.49149,5
697.172,1277.16,     -2.24216,0.48799,5
704.827,1277.54,     -2.18697,0.48454,5
712.488,1277.92,     -2.12933,0.48115,5
720.152,1278.3,     -2.06008,0.47780,5
727.806,1278.68,     -2.01874,0.47451,5
735.457,1279.06,     -1.93564,0.47126,5
743.123,1279.44,     -1.88045,0.46804,5
750.794,1279.82,     -1.79756,0.46485,5
758.451,1280.2,     -1.75601,0.46169,5
766.115,1280.58,     -1.63625,0.45856,5
773.753,1280.96,     -1.60855,0.45545,5
781.417,1281.34,     -1.52566,0.45235,5
789.072,1281.72,     -1.49796,0.44927,5
794.609,1282,     -1.43340,0.44705,5

File: ExpDat_2025_08_17_SL_PS_Container_Dynamic.csv
#EXPORTTYPE:                 ,DATA ALL
#FILE:                       ,2025_08_17_SL_PS_Container_Dynamic.ngb-ss5
#FORMAT:                     ,NETZSCH5
#FTYPE:                      ,ASCII
#IDENTITY:                   ,PS-Container
#DECIMAL:                    ,POINT
#SEPARATOR:                  ,COMMA
#MTYPE:                      ,TG
#INSTRUMENT:                 ,NETZSCH STA 449F5
#PROJECT:                    ,
#DATE/TIME:                  ,8/17/2025 12:32:47 PM (UTC-4)
#CORR. FILE:                 ,
#TEMPCAL:                    ,05-05-2025 14:38
#SENSITIVITY:                ,28-06-2023 13:53
#LABORATORY:                 ,Tran/AAG
#OPERATOR:                   ,Stanley
#REMARK:                     ,2025_03_20_Styrofoam_dynamic
#SAMPLE:                     ,PS-Container
#SAMPLE MASS /mg:            ,5.15
#MATERIAL:                   ,Polystyrene
#REFERENCE:                  ,
#REFERENCE MASS /mg:         ,0
#TYPE OF CRUCIBLE:           ,Al2O3 85 ‘l, open
#SAMPLE CRUCIBLE MASS /mg:   ,0
#REFERENCE CRUCIBLE MASS /mg:,0
#DSC RANGE /‘V:              ,5000
#TG RANGE /mg:               ,35000
#TAU-R:                      ,---
#CORR. CODE:                 ,000
#EXO:                        ,-1
#RANGE:                      ,20›C....800›C/0.0....20.0K/min
#SEGMENT:                    ,S1-4/4
#SEG. 1:                     ,20›C/5.0(K/min)/100›C
#SEG. 2:                     ,100›C/00:05/100›C
#SEG. 3:                     ,100›C/1.0(K/min)/400›C
#SEG. 4:                     ,400›C/20.0(K/min)/800›C

##Temp./›C,Time/min,Mass/%,Sensit./(uV/mW),Segment
 30.07900,  0.00000,    100,0.92357,1
 33.59700,  2.40000,     91.60602,0.92418,1
 37.20000,  4.80000,     91.54466,0.92472,1
 45.60600,  7.20000,     92.50466,0.92565,1
 58.17100,  9.60000,     93.43165,0.92620,1
 72.68300, 12.00000,     93.98951,0.92560,1
 87.36800, 14.40000,     94.25320,0.92369,1
100.023, 16.58333,     94.16757,0.92102,2
105.576, 18.38333,     92.95495,0.91956,2
107.779, 20.18333,     92.07184,0.91894,2
107.658, 22.33333,     91.32272,0.91897,3
107.186, 24.73333,     90.91631,0.91911,3
107.332, 27.13333,     90.75146,0.91907,3
108.373, 29.53333,     90.73845,0.91876,3
110.208, 31.93333,     90.69883,0.91822,3
112.483, 34.33333,     90.66816,0.91751,3
114.98, 36.73333,     90.65495,0.91671,3
117.52, 39.13333,     90.59553,0.91585,3
120.052, 41.53333,     90.58893,0.91496,3
122.521, 43.93333,     90.54951,0.91407,3
124.977, 46.33333,     90.54291,0.91314,3
127.395, 48.73333,     90.51650,0.91220,3
129.812, 51.13333,     90.52971,0.91124,3
132.208, 53.53333,     90.54951,0.91024,3
134.608, 55.93333,     90.58233,0.90922,3
137.01, 58.33333,     90.63515,0.90817,3
139.401, 60.73333,     90.67456,0.90710,3
141.809, 63.13333,     90.72078,0.90599,3
144.224, 65.53333,     90.79320,0.90485,3
146.618, 67.93333,     90.83942,0.90369,3
149.027, 70.33333,     90.90524,0.90249,3
151.43, 72.73333,     90.97786,0.90128,3
153.831, 75.13333,     91.05689,0.90003,3
156.234, 77.53333,     91.08990,0.89876,3
158.642, 79.93333,     91.13592,0.89746,3
161.042, 82.33333,     91.20854,0.89614,3
163.44, 84.73333,     91.26777,0.89479,3
165.834, 87.13333,     91.32718,0.89343,3
168.243, 89.53333,     91.40621,0.89202,3
170.626, 91.93333,     91.45883,0.89061,3
173.032, 94.33333,     91.50505,0.88916,3
175.425, 96.73333,     91.53806,0.88770,3
177.825, 99.13333,     91.61709,0.88621,3
180.247,101.533,     91.68951,0.88468,3
182.636,103.933,     91.70932,0.88315,3
185.047,106.333,     91.77087,0.88158,3
187.44,108.733,     91.82583,0.88000,3
189.833,111.133,     91.87845,0.87840,3
192.239,113.533,     91.91806,0.87677,3
194.628,115.933,     91.97728,0.87513,3
197.026,118.333,     92.01029,0.87346,3
199.43,120.733,     92.06311,0.87177,3
201.833,123.133,     92.10913,0.87006,3
204.245,125.533,     92.16194,0.86833,3
206.624,127.933,     92.23223,0.86659,3
209.038,130.333,     92.28485,0.86482,3
211.415,132.733,     92.34194,0.86305,3
213.817,135.133,     92.35515,0.86124,3
216.243,137.533,     92.41456,0.85940,3
218.631,139.933,     92.44078,0.85757,3
221.026,142.333,     92.52000,0.85572,3
223.431,144.733,     92.52660,0.85384,3
225.834,147.133,     92.56602,0.85195,3
228.223,149.533,     92.58136,0.85005,3
230.619,151.933,     92.62757,0.84813,3
233.03,154.333,     92.65398,0.84618,3
235.419,156.733,     92.69340,0.84424,3
237.826,159.133,     92.73748,0.84227,3
240.21,161.533,     92.75068,0.84030,3
242.624,163.933,     92.80330,0.83829,3
245.02,166.333,     92.83631,0.83628,3
247.42,168.733,     92.81650,0.83426,3
249.831,171.133,     92.86932,0.83221,3
252.23,173.533,     92.87573,0.83016,3
254.617,175.933,     92.90000,0.82811,3
257.02,178.333,     92.90660,0.82603,3
259.426,180.733,     92.93301,0.82394,3
261.831,183.133,     92.93301,0.82184,3
264.211,185.533,     92.93728,0.81974,3
266.619,187.933,     92.95049,0.81762,3
269.019,190.333,     92.93728,0.81549,3
271.419,192.733,     92.94175,0.81335,3
273.817,195.133,     92.92854,0.81120,3
276.207,197.533,     92.93515,0.80905,3
278.595,199.933,     92.93515,0.80689,3
281.001,202.333,     92.89553,0.80471,3
283.415,204.733,     92.91534,0.80251,3
285.8,207.133,     92.90214,0.80033,3
288.2,209.533,     92.86932,0.79813,3
290.58,211.933,     92.86272,0.79594,3
292.993,214.333,     92.83631,0.79371,3
295.396,216.733,     92.78583,0.79149,3
297.805,219.133,     92.77029,0.78925,3
300.196,221.533,     92.74835,0.78702,3
302.606,223.933,     92.70233,0.78477,3
304.998,226.333,     92.65612,0.78253,3
307.413,228.733,     92.59689,0.78027,3
309.802,231.133,     92.53087,0.77802,3
312.2,233.533,     92.49146,0.77577,3
314.605,235.933,     92.39903,0.77350,3
317.011,238.333,     92.33320,0.77122,3
319.404,240.733,     92.24757,0.76896,3
321.805,243.133,     92.16854,0.76668,3
324.195,245.533,     92.04990,0.76441,3
326.605,247.933,     91.91592,0.76212,3
329.015,250.333,     91.77515,0.75983,3
331.392,252.733,     91.61709,0.75757,3
333.81,255.133,     91.40621,0.75526,3
336.211,257.533,     91.19301,0.75297,3
338.609,259.933,     90.89864,0.75069,3
341.009,262.333,     90.51204,0.74840,3
343.406,264.733,     90.10350,0.74611,3
345.793,267.133,     89.56971,0.74383,3
348.211,269.533,     88.89961,0.74152,3
350.609,271.933,     88.15049,0.73923,3
352.995,274.333,     87.06097,0.73695,3
355.391,276.733,     85.67476,0.73467,3
357.801,279.133,     83.90641,0.73237,3
360.192,281.533,     81.60408,0.73009,3
362.597,283.933,     78.68252,0.72780,3
364.996,286.333,     75.13689,0.72552,3
367.401,288.733,     70.73670,0.72323,3
369.796,291.133,     65.51942,0.72096,3
372.199,293.533,     59.16641,0.71868,3
374.576,295.933,     51.88835,0.71642,3
376.984,298.333,     43.88330,0.71414,3
379.386,300.733,     35.50699,0.71187,3
381.802,303.133,     27.10447,0.70960,3
384.196,305.533,     19.22019,0.70734,3
386.598,307.933,     12.38388,0.70508,3
389.008,310.333,      6.96427,0.70282,3
391.395,312.733,      3.05631,0.70058,3
393.801,315.133,      0.43340,0.69834,3
396.21,317.533,     -1.22971,0.69609,3
398.589,319.933,     -2.19184,0.69388,3
399.722,321.038,     -2.49495,0.69282,4
400.25,321.218,     -2.49495,0.69233,4
401.498,321.398,     -2.33029,0.69118,4
403.607,321.578,     -2.11709,0.68922,4
406.497,321.758,     -1.90175,0.68656,4
409.907,321.938,     -1.75456,0.68342,4
413.547,322.118,     -1.64913,0.68008,4
[...]
464.703,324.818,     -1.87981,0.63507,4
468.418,324.998,     -1.87981,0.63195,4
472.126,325.178,     -1.87981,0.62887,4
475.837,325.358,     -1.87981,0.62580,4
479.568,325.538,     -1.87981,0.62275,4
483.316,325.718,     -1.87981,0.61970,4
487.09,325.898,     -1.82718,0.61666,4
490.858,326.078,     -1.80078,0.61365,4
494.654,326.258,     -1.77437,0.61065,4
498.433,326.438,     -1.72175,0.60768,4
502.226,326.618,     -1.69534,0.60473,4
506.005,326.798,     -1.69534,0.60182,4
509.78,326.978,     -1.61631,0.59893,4
513.555,327.158,     -1.61631,0.59608,4
517.336,327.338,     -1.56136,0.59324,4
521.1,327.518,     -1.56796,0.59045,4
524.864,327.698,     -1.50854,0.58768,4
528.618,327.878,     -1.48233,0.58495,4
532.365,328.058,     -1.45592,0.58225,4
536.115,328.238,     -1.42951,0.57957,4
539.863,328.418,     -1.37689,0.57693,4
543.614,328.598,     -1.35049,0.57431,4
547.344,328.778,     -1.32408,0.57173,4
551.059,328.958,     -1.29767,0.56918,4
554.796,329.138,     -1.27126,0.56665,4
558.516,329.318,     -1.24505,0.56416,4
562.247,329.498,     -1.21204,0.56169,4
565.955,329.678,     -1.19223,0.55925,4
569.675,329.858,     -1.16583,0.55684,4
573.387,330.038,     -1.13961,0.55446,4
577.1,330.218,     -1.09340,0.55210,4
580.809,330.398,     -1.08680,0.54977,4
584.505,330.578,     -1.06039,0.54747,4
588.208,330.758,     -1.03417,0.54519,4
591.896,330.938,     -0.99670,0.54295,4
595.58,331.118,     -0.99670,0.54074,4
599.278,331.298,     -0.97049,0.53854,4
602.949,331.478,     -0.94408,0.53638,4
606.652,331.658,     -0.94408,0.53422,4
610.326,331.838,     -0.93087,0.53211,4
613.992,332.018,     -0.93087,0.53002,4
617.671,332.198,     -0.93087,0.52795,4
621.342,332.378,     -0.91767,0.52590,4
625.006,332.558,     -0.94408,0.52388,4
628.684,332.738,     -0.91107,0.52187,4
632.341,332.918,     -0.91107,0.51990,4
636.009,333.098,     -0.93748,0.51794,4
639.669,333.278,     -0.91107,0.51601,4
643.32,333.458,     -0.91107,0.51410,4
646.983,333.638,     -0.89126,0.51220,4
650.629,333.818,     -0.85845,0.51033,4
654.267,333.998,     -0.85845,0.50849,4
657.907,334.178,     -0.80563,0.50666,4
661.547,334.358,     -0.78583,0.50485,4
665.193,334.538,     -0.75301,0.50305,4
668.841,334.718,     -0.72660,0.50127,4
672.497,334.898,     -0.70019,0.49951,4
676.147,335.078,     -0.66058,0.49776,4
679.784,335.258,     -0.64738,0.49603,4
683.434,335.438,     -0.62117,0.49432,4
687.08,335.618,     -0.59476,0.49262,4
690.726,335.798,     -0.56835,0.49093,4
694.377,335.978,     -0.54194,0.48926,4
698.026,336.158,     -0.51573,0.48760,4
701.667,336.338,     -0.49592,0.48596,4
705.31,336.518,     -0.46291,0.48433,4
708.955,336.698,     -0.46291,0.48271,4
712.606,336.878,     -0.43650,0.48110,4
716.238,337.058,     -0.41029,0.47951,4
719.89,337.238,     -0.38388,0.47792,4
723.525,337.418,     -0.35748,0.47635,4
727.167,337.598,     -0.33107,0.47478,4
730.799,337.778,     -0.30485,0.47323,4
734.447,337.958,     -0.27845,0.47168,4
738.091,338.138,     -0.25204,0.47015,4
741.715,338.318,     -0.22563,0.46863,4
745.355,338.498,     -0.19942,0.46710,4
748.986,338.678,     -0.17301,0.46560,4
752.628,338.858,     -0.14660,0.46409,4
756.264,339.038,     -0.13340,0.46259,4
759.897,339.218,     -0.12019,0.46110,4
763.53,339.398,-9.398058e-02,0.45961,4
767.16,339.578,-6.757282e-02,0.45813,4
770.785,339.758,-1.475728e-02,0.45666,4
774.416,339.938,-1.475728e-02,0.45518,4
778.038,340.118, 1.165049e-02,0.45372,4
781.664,340.298, 3.786408e-02,0.45225,4
785.286,340.478, 3.786408e-02,0.45079,4
788.918,340.658, 7.747573e-02,0.44933,4
792.531,340.838, 7.747573e-02,0.44788,4
794.447,340.933,      0.11049,0.44711,4