Folder: data-visualizer/data/TGA/commercial_samples (part 7)

File: ExpDat_2025_08_21_SL_PS_Cup_Lid_SCF3_Isothermal.csv
#EXPORTTYPE:                 ,DATA ALL
#FILE:                       ,2025_08_21_SL_PS_Cup_Lid_SCF3_Isothermal.ngb-ss5
#FORMAT:                     ,NETZSCH5
#FTYPE:                      ,ASCII
#IDENTITY:                   ,PS-CUP-LID-SCF3
#DECIMAL:                    ,POINT
#SEPARATOR:                  ,COMMA
#MTYPE:                      ,TG
#INSTRUMENT:                 ,NETZSCH STA 449F5
#PROJECT:                    ,NO2
#DATE/TIME:                  ,8/21/2025 9:04:38 AM (UTC-4)
#CORR. FILE:                 ,
#TEMPCAL:                    ,05-05-2025 14:38
#SENSITIVITY:                ,28-06-2023 13:53
#LABORATORY:                 ,Seferos
#OPERATOR:                   ,Peter
#REMARK:                     ,2025_03_29_SL_005d_M1_isothermal
#SAMPLE:                     ,PS-CUP-LID-SCF3
#SAMPLE MASS /mg:            ,4.58
#MATERIAL:                   ,Polystyrene
#REFERENCE:                  ,
#REFERENCE MASS /mg:         ,0
#TYPE OF CRUCIBLE:           ,Al2O3 85 ‘l, open
#SAMPLE CRUCIBLE MASS /mg:   ,0
#REFERENCE CRUCIBLE MASS /mg:,0
#DSC RANGE /‘V:              ,5000
#TG RANGE /mg:               ,35000
#TAU-R:                      ,---
#CORR. CODE:                 ,000
#EXO:                        ,-1
#RANGE:                      ,30›C....800›C/0.0....20.0K/min
#SEGMENT:                    ,S1-5/5
#SEG. 1:                     ,30›C/10.0(K/min)/100›C
#SEG. 2:                     ,100›C/00:10/100›C
#SEG. 3:                     ,100›C/5.0(K/min)/300›C
#SEG. 4:                     ,300›C/20:00/300›C
#SEG. 5:                     ,300›C/20.0(K/min)/800›C

##Temp./›C,Time/min,Mass/%,Sensit./(uV/mW),Segment
 27.81500,   0.00000,    100,0.92313,1
 41.31500,   2.96000,     93.23668,0.92523,1
 69.03300,   5.92000,     95.63275,0.92587,1
 92.24000,   7.94000,     95.88712,0.92277,2
101.945,   9.42000,     94.15808,0.92054,2
107.464,  10.90000,     93.11812,0.91903,2
109.825,  12.38000,     91.95961,0.91833,2
109.924,  13.86000,     91.03821,0.91830,2
108.809,  15.34000,     90.24782,0.91864,2
107.122,  16.82000,     89.63515,0.91913,2
108.553,  19.60000,     90.62817,0.91871,3
119.641,  22.56000,     91.98690,0.91511,3
136.021,  25.52000,     92.68341,0.90861,3
153.433,  28.48000,     92.82183,0.90024,3
169.923,  31.44000,     92.71550,0.89103,3
185.446,  34.40000,     92.54498,0.88132,3
200.445,  37.36000,     92.31288,0.87105,3
215.226,  40.32000,     92.03122,0.86018,3
229.935,  43.28000,     91.57183,0.84868,3
244.639,  46.24000,     90.95175,0.83660,3
259.392,  49.20000,     90.14651,0.82397,3
274.135,  52.16000,     89.14869,0.81091,3
288.884,  55.12000,     87.94563,0.79750,3
303.127,  59.70000,     85.13952,0.78429,4
301.242,  67.10000,     82.46441,0.78605,4
300.216,  74.50000,     81.05131,0.78700,4
300.035,  81.90000,     80.01397,0.78717,4
300.014,  89.30000,     79.23079,0.78719,4
300.008,  96.70000,     78.62314,0.78720,4
300.017, 104.1,     78.10699,0.78719,4
300.02, 111.5,     77.71419,0.78719,4
300.012, 118.9,     77.30895,0.78719,4
300.009, 126.3,     77.04236,0.78720,4
300.014, 133.7,     76.80022,0.78719,4
300.013, 141.1,     76.53100,0.78719,4
300.008, 148.5,     76.35066,0.78720,4
300.013, 155.9,     76.15044,0.78719,4
300.016, 163.3,     75.93319,0.78719,4
300.019, 170.7,     75.76266,0.78719,4
300.02, 178.1,     75.58231,0.78719,4
300.015, 185.5,     75.44410,0.78719,4
300.018, 192.9,     75.24389,0.78719,4
300.018, 200.3,     75.08581,0.78719,4
300.02, 207.7,     74.90568,0.78719,4
300.018, 215.1,     74.79432,0.78719,4
300.02, 222.5,     74.63886,0.78719,4
300.009, 229.9,     74.50546,0.78720,4
300.026, 237.3,     74.38428,0.78718,4
300.016, 244.7,     74.20415,0.78719,4
300.017, 252.1,     74.05328,0.78719,4
300.016, 259.5,     73.96441,0.78719,4
300.02, 266.9,     73.80131,0.78719,4
300.025, 274.3,     73.66812,0.78718,4
300.019, 281.7,     73.53472,0.78719,4
300.007, 289.1,     73.41114,0.78720,4
300.008, 296.5,     73.30480,0.78720,4
300.017, 303.9,     73.17162,0.78719,4
300.006, 311.3,     73.07031,0.78720,4
300.023, 318.7,     72.92707,0.78718,4
300.015, 326.1,     72.86769,0.78719,4
300.018, 333.5,     72.72205,0.78719,4
300.01, 340.9,     72.53908,0.78720,4
300.011, 348.3,     72.45262,0.78720,4
300.015, 355.7,     72.33406,0.78719,4
300.018, 363.1,     72.24279,0.78719,4
300.011, 370.5,     72.13166,0.78720,4
300.01, 377.9,     71.99825,0.78720,4
300.017, 385.3,     71.87227,0.78719,4
300.008, 392.7,     71.74869,0.78720,4
300.021, 400.1,     71.63755,0.78719,4
300.01, 407.5,     71.57336,0.78720,4
300.016, 414.9,     71.35349,0.78719,4
300.001, 422.3,     71.24236,0.78721,4
300.012, 429.7,     71.13362,0.78719,4
300.023, 437.1,     70.99520,0.78718,4
300.028, 444.5,     70.91878,0.78718,4
300.02, 451.9,     70.78035,0.78719,4
300.001, 459.3,     70.68166,0.78721,4
300.012, 466.7,     70.56790,0.78719,4
300.025, 474.1,     70.44192,0.78718,4
300.024, 481.5,     70.31354,0.78718,4
300.006, 488.9,     70.16288,0.78720,4
300.021, 496.3,     70.07882,0.78719,4
300.021, 503.7,     69.95284,0.78719,4
300.018, 511.1,     69.81703,0.78719,4
300.012, 518.5,     69.68603,0.78719,4
300.018, 525.9,     69.54039,0.78719,4
300.013, 533.3,     69.46376,0.78719,4
300.019, 540.7,     69.34279,0.78719,4
300.024, 548.1,     69.22162,0.78718,4
300.02, 555.5,     69.10066,0.78719,4
300.022, 562.9,     68.94498,0.78719,4
300.017, 570.3,     68.85611,0.78719,4
300.014, 577.7,     68.73013,0.78719,4
300.01, 585.1,     68.60655,0.78720,4
300.019, 592.5,     68.46092,0.78719,4
300.012, 599.9,     68.32751,0.78719,4
300.038, 607.3,     68.24105,0.78717,4
300.024, 614.7,     68.09279,0.78718,4
300.012, 622.1,     67.95939,0.78719,4
300.023, 629.5,     67.81616,0.78718,4
300.014, 636.9,     67.72489,0.78719,4
300.014, 644.3,     67.62838,0.78719,4
300.006, 651.7,     67.50240,0.78720,4
300.005, 659.1,     67.35437,0.78720,4
300.017, 666.5,     67.24803,0.78719,4
300.021, 673.9,     67.12948,0.78719,4
300.011, 681.3,     67.01092,0.78720,4
300.015, 688.7,     66.87991,0.78719,4
300.022, 696.1,     66.77860,0.78719,4
300.014, 703.5,     66.65284,0.78719,4
300.021, 710.9,     66.53406,0.78719,4
300.023, 718.3,     66.45262,0.78718,4
300.023, 725.7,     66.29694,0.78718,4
300.019, 733.1,     66.20066,0.78719,4
300.014, 740.5,     66.08450,0.78719,4
300.019, 747.9,     65.94127,0.78719,4
300.014, 755.3,     65.81528,0.78719,4
300.014, 762.7,     65.67948,0.78719,4
300.011, 770.1,     65.57576,0.78720,4
300.022, 777.5,     65.42009,0.78719,4
300.008, 784.9,     65.33865,0.78720,4
300.017, 792.3,     65.18057,0.78719,4
300.024, 799.7,     65.05939,0.78718,4
300.003, 807.1,     64.94083,0.78720,4
300.007, 814.5,     64.84454,0.78720,4
300.02, 821.9,     64.67402,0.78719,4
300.013, 829.3,     64.56048,0.78719,4
300.018, 836.7,     64.41223,0.78719,4
300.023, 844.1,     64.28624,0.78718,4
300.011, 851.5,     64.17271,0.78720,4
300.022, 858.9,     64.00218,0.78719,4
300.017, 866.3,     63.88362,0.78719,4
300.002, 873.7,     63.73297,0.78720,4
300.016, 881.1,     63.63428,0.78719,4
300.024, 888.5,     63.47598,0.78718,4
300.009, 895.9,     63.36245,0.78720,4
300.019, 903.3,     63.25633,0.78719,4
300.013, 910.7,     63.11550,0.78719,4
300.006, 918.1,     62.97467,0.78720,4
300.015, 925.5,     62.83384,0.78719,4
300.016, 932.9,     62.71528,0.78719,4
300.008, 940.3,     62.56703,0.78720,4
[...]
300.017,1088.3,     59.81528,0.78719,4
300.021,1095.7,     59.65961,0.78719,4
300.022,1103.1,     59.50415,0.78719,4
300.017,1110.5,     59.39279,0.78719,4
300.019,1117.9,     59.23734,0.78719,4
300.003,1125.3,     59.09651,0.78720,4
300.008,1132.7,     58.97052,0.78720,4
300.029,1140.1,     58.82227,0.78718,4
300.016,1147.5,     58.71354,0.78719,4
300.026,1154.9,     58.58755,0.78718,4
300.023,1162.3,     58.42467,0.78718,4
300.017,1169.7,     58.29127,0.78719,4
300.017,1177.1,     58.14061,0.78719,4
300.012,1184.5,     58.01943,0.78719,4
300.023,1191.9,     57.89345,0.78718,4
300.016,1199.3,     57.76004,0.78719,4
300.02,1206.7,     57.61681,0.78719,4
300.017,1214.1,     57.46856,0.78719,4
300.019,1221.5,     57.33777,0.78719,4
300.011,1228.9,     57.16725,0.78720,4
300.016,1236.3,     57.06856,0.78719,4
300.009,1243.7,     56.92271,0.78720,4
300.011,1251.1,     56.77948,0.78720,4
300.022,1257.08,     56.65349,0.78719,5
300.765,1257.44,     56.98210,0.78649,5
304.015,1257.82,     57.85153,0.78346,5
309.663,1258.18,     58.60240,0.77816,5
316.314,1258.56,     59.02729,0.77188,5
322.821,1258.92,     59.17555,0.76572,5
328.972,1259.3,     59.26441,0.75987,5
335.245,1259.66,     59.38799,0.75389,5
342.101,1260.04,     59.57074,0.74735,5
349.596,1260.4,     59.75109,0.74020,5
357.487,1260.78,     59.90175,0.73267,5
365.499,1261.14,     59.87205,0.72504,5
373.507,1261.52,     59.78319,0.71744,5
381.497,1261.88,     59.45218,0.70988,5
389.555,1262.26,     58.74083,0.70231,5
397.66,1262.62,     57.48843,0.69474,5
405.794,1262.99,     55.40109,0.68720,5
413.902,1263.37,     52.09847,0.67976,5
421.96,1263.73,     46.90131,0.67243,5
429.963,1264.11,     39.19913,0.66524,5
437.936,1264.47,     29.05415,0.65816,5
445.855,1264.85,     17.99279,0.65121,5
453.724,1265.21,      8.87533,0.64440,5
461.555,1265.59,      3.11485,0.63772,5
469.371,1265.95, 5.938865e-02,0.63116,5
477.158,1266.33,     -1.37096,0.62472,5
484.888,1266.69,     -1.99825,0.61843,5
492.597,1267.07,     -2.24782,0.61227,5
500.241,1267.43,     -2.31441,0.60627,5
507.865,1267.81,     -2.31441,0.60039,5
515.459,1268.17,     -2.28493,0.59465,5
523.032,1268.55,     -2.25524,0.58902,5
530.586,1268.91,     -2.22555,0.58353,5
538.113,1269.29,     -2.18843,0.57816,5
545.625,1269.65,     -2.10459,0.57291,5
553.134,1270.03,     -2.03777,0.56778,5
560.65,1270.39,     -1.97860,0.56274,5
568.147,1270.77,     -1.88952,0.55783,5
575.637,1271.13,     -1.83035,0.55302,5
583.122,1271.51,     -1.75633,0.54833,5
590.596,1271.88,     -1.67969,0.54374,5
598.081,1272.24,     -1.62031,0.53925,5
605.566,1272.62,     -1.53144,0.53485,5
613.034,1272.98,     -1.47205,0.53056,5
620.488,1273.36,     -1.41288,0.52637,5
627.951,1273.72,     -1.33886,0.52227,5
635.41,1274.1,     -1.28690,0.51826,5
642.858,1274.46,     -1.19803,0.51434,5
650.315,1274.84,     -1.10895,0.51049,5
657.769,1275.2,     -1.07948,0.50673,5
665.215,1275.58,     -1.02009,0.50304,5
672.667,1275.94,     -0.93122,0.49942,5
680.115,1276.32,     -0.87183,0.49588,5
687.57,1276.68,     -0.82009,0.49239,5
695.038,1277.06,     -0.75328,0.48896,5
702.487,1277.42,     -0.69410,0.48559,5
709.955,1277.8,     -0.60502,0.48226,5
717.416,1278.16,     -0.54585,0.47899,5
724.875,1278.54,     -0.48646,0.47577,5
732.34,1278.9,     -0.42729,0.47258,5
739.798,1279.28,     -0.33843,0.46943,5
747.26,1279.64,     -0.30873,0.46631,5
754.723,1280.02,     -0.21987,0.46322,5
762.177,1280.38,     -0.16790,0.46016,5
769.646,1280.76,     -0.10852,0.45712,5
777.098,1281.12,-4.934498e-02,0.45410,5
784.545,1281.49, 3.951965e-02,0.45109,5
792.011,1281.87, 9.148472e-02,0.44809,5
794.742,1282,      0.12860,0.44699,5

File: ExpDat_2025_08_22_SL_PS_Cup_Lid_SCF3_Dynamic.csv
#EXPORTTYPE:                 ,DATA ALL
#FILE:                       ,2025_08_22_SL_PS_Cup_Lid_SCF3_Dynamic.ngb-ss5
#FORMAT:                     ,NETZSCH5
#FTYPE:                      ,ASCII
#IDENTITY:                   ,PS-Cup-Lid-SCF3
#DECIMAL:                    ,POINT
#SEPARATOR:                  ,COMMA
#MTYPE:                      ,DSC
#INSTRUMENT:                 ,NETZSCH STA 449F5
#PROJECT:                    ,Polystyrene
#DATE/TIME:                  ,8/22/2025 5:43:50 PM (UTC-4)
#CORR. FILE:                 ,
#TEMPCAL:                    ,05-05-2025 14:38
#SENSITIVITY:                ,28-06-2023 13:53
#LABORATORY:                 ,Tran/AAG
#OPERATOR:                   ,Stanley
#REMARK:                     ,2025_03_20_Styrofoam_dynamic
#SAMPLE:                     ,PS-Cup-Lid-SCF3
#SAMPLE MASS /mg:            ,3.26
#MATERIAL:                   ,Polystyrene
#REFERENCE:                  ,
#REFERENCE MASS /mg:         ,0
#TYPE OF CRUCIBLE:           ,Al2O3 85 ‘l, open
#SAMPLE CRUCIBLE MASS /mg:   ,0
#REFERENCE CRUCIBLE MASS /mg:,0
#DSC RANGE /‘V:              ,5000
#TG RANGE /mg:               ,35000
#TAU-R:                      ,---
#CORR. CODE:                 ,000
#EXO:                        ,-1
#RANGE:                      ,20›C....800›C/0.0....20.0K/min
#SEGMENT:                    ,S1-4/4
#SEG. 1:                     ,20›C/5.0(K/min)/100›C
#SEG. 2:                     ,100›C/00:05/100›C
#SEG. 3:                     ,100›C/1.0(K/min)/400›C
#SEG. 4:                     ,400›C/20.0(K/min)/800›C

##Temp./›C,Time/min,DSC/(mW/mg),Mass/%,Gas Flow(purge2)/(ml/min),Gas Flow(protective)/(ml/min),TIC(scan:1)/A,Sensit./(uV/mW),Segment
 28.24600,  0.00000,      0.84084,    100,50.00000,54.00000,            ,0.92322,1
 37.55000,  5.06667,      0.52259,     85.92055,50.00000,51.00000,9.887467e-09,0.92398,1
 61.21300, 10.13333,      1.61085,     88.93650,50.00000,51.00000,9.877026e-09,0.92442,1
 92.02300, 15.20000,      1.92334,     89.98436,50.00000,51.00000,9.879165e-09,0.92514,1
106.759, 19.13500,      0.60135,     87.31227,50.00000,51.00000,9.876310e-09,0.92576,2
107.429, 23.60167,-8.938110e-02,     84.72699,50.00000,51.00000,9.870717e-09,0.92618,3
107.913, 28.66833,      0.13269,     84.03282,50.00000,51.00000,9.868332e-09,0.92591,3
111.874, 33.73500,      0.34019,     83.78650,50.00000,51.00000,9.867731e-09,0.92476,3
117.159, 38.80167,      0.39705,     83.59202,50.00000,51.00000,9.869889e-09,0.92273,3
122.44, 43.86833,      0.39735,     83.27270,50.00000,51.00000,9.888396e-09,0.92072,3
127.587, 48.93500,      0.39590,     83.07853,50.00000,51.00000,9.855550e-09,0.91959,3
132.643, 54.00167,      0.40014,     82.97086,50.00000,51.00000,9.854965e-09,0.91900,3
137.711, 59.06833,      0.40446,     82.81472,50.00000,51.00000,9.845182e-09,0.91892,3
142.782, 64.13500,      0.40834,     82.71748,50.00000,51.00000,9.853732e-09,0.91903,3
147.864, 69.20167,      0.40790,     82.50920,50.00000,51.00000,9.859336e-09,0.91911,3
152.943, 74.26833,      0.40725,     82.34264,50.00000,51.00000,9.857788e-09,0.91903,3
158.005, 79.33500,      0.40299,     82.17270,50.00000,51.00000,9.859264e-09,0.91876,3
163.083, 84.40167,      0.40060,     81.89172,50.00000,51.00000,9.847740e-09,0.91832,3
168.146, 89.46833,      0.39037,     81.63834,50.00000,51.00000,9.876283e-09,0.91779,3
173.204, 94.53500,      0.38406,     81.29110,50.00000,51.00000,9.850790e-09,0.91715,3
178.257, 99.60167,      0.37300,     80.95460,50.00000,51.00000,9.858171e-09,0.91646,3
183.342,104.668,      0.36111,     80.52086,50.00000,51.00000,9.890912e-09,0.91574,3
188.411,109.735,      0.35024,     80.04877,50.00000,51.00000,9.892546e-09,0.91500,3
193.474,114.802,      0.33745,     79.46227,50.00000,51.00000,9.902930e-09,0.91425,3
198.535,119.868,      0.32272,     78.91748,50.00000,51.00000,9.908899e-09,0.91349,3
203.601,124.935,      0.30709,     78.27209,50.00000,51.00000,9.892809e-09,0.91270,3
208.662,130.002,      0.28540,     77.52239,50.00000,51.00000,9.896573e-09,0.91195,3
213.732,135.068,      0.26710,     76.75184,50.00000,51.00000,9.897150e-09,0.91114,3
218.806,140.135,      0.24701,     75.88436,50.00000,51.00000,9.898148e-09,0.91031,3
223.876,145.202,      0.22265,     74.98221,50.00000,51.00000,9.912175e-09,0.90947,3
228.927,150.268,      0.19808,     74.03129,50.00000,51.00000,9.908431e-09,0.90860,3
233.993,155.335,      0.16776,     73.00399,50.00000,51.00000,9.885897e-09,0.90771,3
239.054,160.402,      0.14104,     71.99417,50.00000,51.00000,9.899904e-09,0.90683,3
244.12,165.468,      0.10764,     70.91472,50.00000,51.00000,9.913490e-09,0.90591,3
249.193,170.535, 7.756504e-02,     69.79387,50.00000,51.00000,9.904241e-09,0.90497,3
254.244,175.602, 4.293987e-02,     68.72853,50.00000,51.00000,9.891473e-09,0.90399,3
259.307,180.668, 5.396059e-03,     67.71166,50.00000,51.00000,9.897684e-09,0.90301,3
264.387,185.735,-3.055343e-02,     66.67055,50.00000,51.00000,9.898458e-09,0.90201,3
269.452,190.802,-7.350224e-02,     65.60859,50.00000,51.00000,9.893795e-09,0.90098,3
274.521,195.868,     -0.11231,     64.61595,50.00000,51.00000,9.908444e-09,0.89994,3
279.587,200.935,     -0.15999,     63.63405,50.00000,51.00000,9.897694e-09,0.89888,3
284.642,206.002,     -0.20676,     62.62423,50.00000,51.00000,9.904329e-09,0.89781,3
289.703,211.068,     -0.25378,     61.70798,50.00000,51.00000,9.898284e-09,0.89675,3
294.784,216.135,     -0.30138,     60.82301,50.00000,51.00000,9.911473e-09,0.89565,3
299.827,221.202,     -0.35014,     59.93466,50.00000,51.00000,9.921800e-09,0.89450,3
304.906,226.268,     -0.39831,     59.13282,50.00000,51.00000,9.899080e-09,0.89336,3
309.975,231.335,     -0.45250,     58.26196,50.00000,51.00000,9.897938e-09,0.89220,3
315.038,236.402,     -0.50464,     57.46718,50.00000,51.00000,9.920328e-09,0.89102,3
320.111,241.468,     -0.55957,     56.67577,50.00000,51.00000,9.907423e-09,0.88982,3
325.176,246.535,     -0.61950,     55.82209,50.00000,51.00000,9.934505e-09,0.88861,3
330.244,251.602,     -0.66570,     55.01012,50.00000,51.00000,9.932273e-09,0.88742,3
335.317,256.668,     -0.72088,     54.13558,50.00000,51.00000,9.951156e-09,0.88619,3
340.367,261.735,     -0.77801,     53.20890,50.00000,51.00000,9.945361e-09,0.88492,3
345.439,266.802,     -0.83339,     52.16779,50.00000,51.00000,9.945881e-09,0.88365,3
350.51,271.868,     -0.88918,     51.03650,50.00000,51.00000,9.939035e-09,0.88235,3
355.587,276.935,     -0.94347,     49.53374,50.00000,51.00000,9.960352e-09,0.88104,3
360.63,282.002,     -0.99267,     47.69448,50.00000,51.00000,9.958433e-09,0.87972,3
365.714,287.068,     -1.03836,     45.14049,50.00000,51.00000,9.954656e-09,0.87837,3
370.785,292.135,     -1.08042,     41.60767,50.00000,51.00000,9.970567e-09,0.87702,3
375.845,297.202,     -1.12136,     36.53037,50.00000,51.00000,9.959126e-09,0.87565,3
380.906,302.268,     -1.17272,     29.47853,50.00000,51.00000,9.972541e-09,0.87427,3
385.972,307.335,     -1.26621,     20.95184,50.00000,51.00000,9.966128e-09,0.87287,3
391.05,312.402,     -1.42841,     12.28988,50.00000,51.00000,9.970160e-09,0.87146,3
396.094,317.468,     -1.63909,      5.18252,50.00000,51.00000,9.969590e-09,0.87003,3
399.716,321.055,     -1.79839,      1.43804,50.00000,51.00000,9.964388e-09,0.86902,4
401.673,321.435,     -0.17577,      1.56656,50.00000,51.00000,9.956435e-09,0.86893,4
[...]
472.735,325.235,      8.75095,     -2.47301,50.00000,51.00000,9.963308e-09,0.86782,4
480.61,325.615,      8.71359,     -2.82362,50.00000,51.00000,9.938863e-09,0.86773,4
488.587,325.995,      8.73284,     -3.08374,50.00000,51.00000,9.960034e-09,0.86763,4
496.595,326.375,      8.72660,     -3.16718,50.00000,51.00000,9.961354e-09,0.86754,4
504.612,326.755,      8.66038,     -3.16718,50.00000,51.00000,9.958969e-09,0.86739,4
512.609,327.135,      8.55357,     -3.15675,50.00000,51.00000,9.955830e-09,0.86730,4
520.58,327.515,      8.43581,     -3.08374,50.00000,51.00000,9.964459e-09,0.86719,4
528.556,327.895,      8.32117,     -3.03160,50.00000,51.00000,9.958130e-09,0.86710,4
536.498,328.275,      8.20133,     -2.94847,50.00000,51.00000,9.955343e-09,0.86694,4
544.429,328.655,      8.07444,     -2.86503,50.00000,51.00000,9.969928e-09,0.86685,4
552.347,329.035,      7.95313,     -2.78190,50.00000,51.00000,9.940820e-09,0.86676,4
560.254,329.415,      7.84018,     -2.69847,50.00000,51.00000,9.961449e-09,0.86665,4
568.133,329.795,      7.71521,     -2.57362,50.00000,51.00000,9.949633e-09,0.86650,4
575.976,330.175,      7.60461,     -2.49049,50.00000,51.00000,9.964779e-09,0.86641,4
583.825,330.555,      7.50926,     -2.36534,50.00000,51.00000,9.972986e-09,0.86631,4
591.66,330.935,      7.42433,     -2.28221,50.00000,51.00000,9.951706e-09,0.86621,4
599.455,331.315,      7.34301,     -2.19877,50.00000,51.00000,9.961816e-09,0.86612,4
607.266,331.695,      7.26334,     -2.11564,50.00000,51.00000,9.965938e-09,0.86597,4
615.042,332.075,      7.19519,     -2.03221,50.00000,51.00000,9.959026e-09,0.86587,4
622.814,332.455,      7.12940,     -1.94908,50.00000,51.00000,9.959417e-09,0.86577,4
630.574,332.835,      7.07054,     -1.82393,50.00000,51.00000,9.963560e-09,0.86563,4
638.31,333.215,      7.03736,     -1.74080,50.00000,51.00000,9.953492e-09,0.86553,4
646.05,333.595,      6.98509,     -1.69908,50.00000,51.00000,9.960027e-09,0.86544,4
653.77,333.975,      6.92975,     -1.53252,50.00000,51.00000,9.958703e-09,0.86534,4
661.486,334.355,      6.88121,     -1.49080,50.00000,51.00000,9.951934e-09,0.86519,4
669.202,334.735,      6.85000,     -1.36258,50.00000,51.00000,9.965282e-09,0.86509,4
676.936,335.115,      6.79907,     -1.38344,50.00000,51.00000,9.958917e-09,0.86499,4
684.639,335.495,      6.72345,     -1.25828,50.00000,51.00000,9.946366e-09,0.86490,4
692.337,335.875,      6.63576,     -1.17515,50.00000,51.00000,9.970838e-09,0.86475,4
700.034,336.255,      6.53153,     -1.10215,50.00000,51.00000,9.970991e-09,0.86466,4
707.727,336.635,      6.42742,     -1.01902,50.00000,51.00000,9.951377e-09,0.86455,4
715.416,337.015,      6.29915,     -0.93558,50.00000,51.00000,9.964491e-09,0.86446,4
723.117,337.395,      6.13657,     -0.85245,50.00000,51.00000,9.992012e-09,0.86431,4
730.811,337.775,      5.95329,     -0.76902,50.00000,51.00000,9.947888e-09,0.86421,4
738.485,338.155,      5.72054,     -0.69632,50.00000,51.00000,9.965153e-09,0.86411,4
746.171,338.535,      5.46614,     -0.64417,50.00000,51.00000,9.958637e-09,0.86400,4
753.856,338.915,      5.16545,     -0.56074,50.00000,51.00000,9.973470e-09,0.86386,4
761.517,339.295,      4.83682,     -0.44632,50.00000,51.00000,9.966031e-09,0.86375,4
769.186,339.675,      4.48148,     -0.39417,50.00000,51.00000,9.963979e-09,0.86367,4
776.871,340.055,      4.10774,     -0.32485,50.00000,51.00000,9.979046e-09,0.86356,4
784.546,340.435,      3.69910,     -0.24141,50.00000,51.00000,9.948500e-09,0.86341,4
792.216,340.815,      3.26853,     -0.15828,50.00000,51.00000,            ,0.44801,4
794.636,340.935,      3.12905,     -0.15828,50.00000,51.00000,            ,0.44704,4