Folder: data-visualizer/data/TGA/commercial_samples (part 3)

File: ExpDat_2025_08_03_SL_PS_Blue_Cup_Isothermal.csv
#EXPORTTYPE:                 ,DATA ALL
#FILE:                       ,2025_08_03_SL_PS_Blue_Cup_Isothermal.ngb-ss5
#FORMAT:                     ,NETZSCH5
#FTYPE:                      ,ASCII
#IDENTITY:                   ,PS-Blue-Cup
#DECIMAL:                    ,POINT
#SEPARATOR:                  ,COMMA
#MTYPE:                      ,DSC
#INSTRUMENT:                 ,NETZSCH STA 449F5
#PROJECT:                    ,
#DATE/TIME:                  ,8/3/2025 5:12:55 PM (UTC-4)
#CORR. FILE:                 ,
#TEMPCAL:                    ,05-05-2025 14:38
#SENSITIVITY:                ,28-06-2023 13:53
#LABORATORY:                 ,Tran/AAG
#OPERATOR:                   ,Stanley
#REMARK:                     ,2025_03_29_SL_005d_M1_isothermal
#SAMPLE:                     ,PS-Blue-Cup
#SAMPLE MASS /mg:            ,5.04
#MATERIAL:                   ,Polystyrene
#REFERENCE:                  ,
#REFERENCE MASS /mg:         ,0
#TYPE OF CRUCIBLE:           ,Al2O3 85 ‘l, open
#SAMPLE CRUCIBLE MASS /mg:   ,0
#REFERENCE CRUCIBLE MASS /mg:,0
#DSC RANGE /‘V:              ,5000
#TG RANGE /mg:               ,35000
#TAU-R:                      ,---
#CORR. CODE:                 ,000
#EXO:                        ,-1
#RANGE:                      ,30›C....800›C/0.0....20.0K/min
#SEGMENT:                    ,S1-5/5
#SEG. 1:                     ,30›C/10.0(K/min)/100›C
#SEG. 2:                     ,100›C/00:10/100›C
#SEG. 3:                     ,100›C/5.0(K/min)/300›C
#SEG. 4:                     ,300›C/20:00/300›C
#SEG. 5:                     ,300›C/20.0(K/min)/800›C

##Temp./›C,Time/min,DSC/(mW/mg),Mass/%,Gas Flow(purge2)/(ml/min),Gas Flow(protective)/(ml/min),TIC(scan:1)/A,Sensit./(uV/mW),Segment
 40.40600,   0.00000,     -0.19864,100,50.00000,50.00000,            ,0.92513,1
 70.41800,   6.04000,      2.29490,109.051,50.00000,50.00000,1.444134e-08,0.92522,1
101.758,   9.52000,      1.63482,108.292,50.00000,50.00000,1.437619e-08,0.92546,2
110.214,  12.54000,      0.39484,106.55,50.00000,50.00000,1.442997e-08,0.92572,2
109.235,  15.56000,     -0.26353,105.324,50.00000,50.00000,1.441804e-08,0.92597,2
110.458,  20.20000,      0.70005,107.015,50.00000,50.00000,1.444070e-08,0.92620,3
140.631,  26.24000,      2.01233,109.702,50.00000,50.00000,1.440887e-08,0.92561,3
174.934,  32.28000,      2.01801,110.478,50.00000,50.00000,1.443129e-08,0.92411,3
205.734,  38.32000,      1.99196,110.999,50.00000,50.00000,1.438370e-08,0.92278,3
235.741,  44.36000,      2.01925,111.417,50.00000,50.00000,1.441761e-08,0.92161,3
265.787,  50.40000,      1.99480,111.462,50.00000,50.00000,1.441220e-08,0.92064,3
295.865,  56.44000,      1.89926,111.246,50.00000,50.00000,1.441191e-08,0.91977,3
300.537,  70.76000,     -0.69694,109.778,50.00000,36.00000,1.436197e-08,0.91841,4
300.021,  85.86000,     -0.64825,108.494,50.00000,36.00000,1.433018e-08,0.91813,4
300.021, 100.96,     -0.64671,107.731,50.00000,36.00000,1.436922e-08,0.91851,4
300.016, 116.06,     -0.64921,107.197,50.00000,36.00000,1.431467e-08,0.91921,4
300.017, 131.16,     -0.64632,106.761,50.00000,36.00000,1.430764e-08,0.91689,4
300.022, 146.26,     -0.64152,106.391,50.00000,36.00000,1.428324e-08,0.90989,4
300.018, 161.36,     -0.64267,106.072,50.00000,36.00000,1.428944e-08,0.89975,4
300.015, 176.46,     -0.63920,105.742,50.00000,36.00000,1.426935e-08,0.88840,4
300.037, 191.56,     -0.63403,105.41,50.00000,36.00000,1.424920e-08,0.87618,4
300.022, 206.66,     -0.62671,105.078,50.00000,36.00000,1.423709e-08,0.86327,4
300.021, 221.76,     -0.62709,104.757,50.00000,36.00000,1.423688e-08,0.84945,4
300.009, 236.86,     -0.62882,104.418,50.00000,36.00000,1.425065e-08,0.83455,4
300.017, 251.96,     -0.61305,104.103,50.00000,36.00000,1.426339e-08,0.81888,4
300.008, 267.06,     -0.61401,103.753,50.00000,36.00000,1.419548e-08,0.80278,4
300.027, 282.16,     -0.61383,103.437,50.00000,36.00000,1.419942e-08,0.78516,4
300.023, 297.26,     -0.61017,103.084,50.00000,36.00000,1.422810e-08,0.78613,4
300.009, 312.36,     -0.60978,102.727,50.00000,36.00000,1.425008e-08,0.78707,4
300.019, 327.46,     -0.60190,102.368,50.00000,36.00000,1.420268e-08,0.78719,4
300.028, 342.56,     -0.59537,102.029,50.00000,36.00000,1.421486e-08,0.78719,4
300.024, 357.66,     -0.59594,101.679,50.00000,36.00000,1.421994e-08,0.78720,4
300.007, 372.76,     -0.58939,101.284,50.00000,36.00000,1.419014e-08,0.78720,4
300.012, 387.86,     -0.58690,100.927,50.00000,36.00000,1.417644e-08,0.78720,4
300.012, 402.96,     -0.58190,100.584,50.00000,36.00000,1.416045e-08,0.78720,4
300.024, 418.06,     -0.58402,100.222,50.00000,36.00000,1.418389e-08,0.78719,4
300.007, 433.16,     -0.57959, 99.85179,50.00000,36.00000,1.413497e-08,0.78719,4
300.016, 448.26,     -0.58536, 99.47480,50.00000,36.00000,1.415189e-08,0.78719,4
300.016, 463.36,     -0.57825, 99.10218,50.00000,36.00000,1.418633e-08,0.78720,4
300.029, 478.46,     -0.56883, 98.69583,50.00000,36.00000,1.416838e-08,0.78719,4
300.016, 493.56,     -0.57017, 98.34107,50.00000,36.00000,1.412655e-08,0.78719,4
300.02, 508.66,     -0.56460, 97.94385,50.00000,36.00000,1.413563e-08,0.78719,4
300.019, 523.76,     -0.55825, 97.54643,50.00000,36.00000,1.412918e-08,0.78718,4
299.993, 538.86,     -0.55266, 97.13790,50.00000,36.00000,1.411779e-08,0.78719,4
300.023, 553.96,     -0.54652, 96.76310,50.00000,36.00000,1.410665e-08,0.78720,4
300.015, 569.06,     -0.55075, 96.34563,50.00000,36.00000,1.408272e-08,0.78718,4
300.025, 584.16,     -0.54479, 95.91230,50.00000,36.00000,1.406176e-08,0.78721,4
300.01, 599.26,     -0.54940, 95.50159,50.00000,36.00000,1.407445e-08,0.78720,4
300.015, 614.36,     -0.54440, 95.10417,50.00000,36.00000,1.407876e-08,0.78719,4
300.002, 629.46,     -0.54516, 94.67321,50.00000,36.00000,1.404292e-08,0.78720,4
300.007, 644.56,     -0.54363, 94.28274,50.00000,36.00000,1.405292e-08,0.78720,4
300.02, 659.66,     -0.53844, 93.85397,50.00000,36.00000,1.405746e-08,0.78718,4
300.018, 674.76,     -0.53979, 93.41171,50.00000,36.00000,1.404660e-08,0.78720,4
300.015, 689.86,     -0.53806, 92.98750,50.00000,36.00000,1.402831e-08,0.78718,4
300.006, 704.96,     -0.53940, 92.57004,50.00000,36.00000,1.402564e-08,0.78719,4
300.02, 720.06,     -0.53460, 92.18393,50.00000,36.00000,1.400319e-08,0.78719,4
300.028, 735.16,     -0.53556, 91.73710,50.00000,36.00000,1.399578e-08,0.78719,4
300.018, 750.26,     -0.53421, 91.32857,50.00000,36.00000,1.398884e-08,0.78719,4
300.019, 765.36,     -0.53210, 90.94484,50.00000,36.00000,1.392790e-08,0.78720,4
300.013, 780.46,     -0.52075, 90.45992,50.00000,36.00000,1.394639e-08,0.78719,4
300.01, 795.56,     -0.51959, 90.02004,50.00000,36.00000,1.393496e-08,0.78720,4
300.016, 810.66,     -0.51267, 89.57103,50.00000,36.00000,1.392750e-08,0.78720,4
300.013, 825.76,     -0.51075, 89.14444,50.00000,36.00000,1.390556e-08,0.78719,4
300.026, 840.86,     -0.51364, 88.70913,50.00000,36.00000,1.389390e-08,0.78720,4
300.017, 855.96,     -0.50825, 88.28036,50.00000,36.00000,1.388848e-08,0.78720,4
300.014, 871.06,     -0.51056, 87.85595,50.00000,36.00000,1.388447e-08,0.78719,4
300.01, 886.16,     -0.50555, 87.37560,50.00000,36.00000,1.387788e-08,0.78720,4
300.011, 901.26,     -0.50671, 86.92897,50.00000,36.00000,1.387210e-08,0.78719,4
300.014, 916.36,     -0.49767, 86.51151,50.00000,36.00000,1.388150e-08,0.78719,4
300.025, 931.46,     -0.49499, 86.05139,50.00000,36.00000,1.387479e-08,0.78720,4
[...]
300.027,1097.56,     -0.48729, 80.94226,50.00000,35.00000,1.377212e-08,0.78719,4
299.996,1112.66,     -0.48651, 80.52480,50.00000,35.00000,1.381880e-08,0.78718,4
300.016,1127.76,     -0.48767, 80.06905,50.00000,35.00000,1.379919e-08,0.78719,4
300.017,1142.86,     -0.48614, 79.56845,50.00000,35.00000,1.384933e-08,0.78720,4
300.029,1157.96,     -0.48422, 79.14425,50.00000,35.00000,1.383975e-08,0.78719,4
300.015,1173.06,     -0.48383, 78.63929,50.00000,35.00000,1.380775e-08,0.78719,4
300,1188.16,     -0.47978, 78.17679,50.00000,35.00000,1.382776e-08,0.78719,4
300.013,1203.26,     -0.47883, 77.72341,50.00000,35.00000,1.380660e-08,0.78720,4
300.009,1218.36,     -0.47767, 77.26548,50.00000,35.00000,1.385992e-08,0.78719,4
300.016,1233.46,     -0.47171, 76.77837,50.00000,35.00000,1.383365e-08,0.78720,4
300.009,1248.56,     -0.47325, 76.34504,50.00000,35.00000,1.379323e-08,0.78719,4
300.392,1257.3,     -0.12851, 75.84008,50.00000,50.00000,1.382365e-08,0.78719,5
308.452,1258.05,      4.28843, 76.48651,50.00000,50.00000,1.378493e-08,0.78719,5
322.017,1258.81,      6.91691, 76.95575,50.00000,50.00000,1.382987e-08,0.78719,5
334.85,1259.56,      7.08125, 77.09028,50.00000,50.00000,1.382340e-08,0.78720,5
349.381,1260.32,      8.28685, 77.33730,50.00000,50.00000,1.381612e-08,0.78720,5
365.628,1261.07,      9.32569, 77.21825,50.00000,50.00000,1.383633e-08,0.78720,5
381.951,1261.83,      9.74229, 76.04881,50.00000,50.00000,1.381801e-08,0.78719,5
398.412,1262.58,     10.45575, 72.39881,50.00000,50.00000,1.381154e-08,0.78719,5
414.935,1263.34,     11.75039, 62.63433,50.00000,50.00000,1.381098e-08,0.78720,5
431.234,1264.09,     13.45401, 41.59683,50.00000,50.00000,1.384387e-08,0.78719,5
447.323,1264.85,     12.08996, 19.69742,50.00000,50.00000,1.380103e-08,0.78719,5
463.39,1265.6,      9.13463, 15.15635,50.00000,50.00000,1.382416e-08,0.78718,5
479.239,1266.36,      8.09565, 14.92282,50.00000,50.00000,1.382808e-08,0.78718,5
494.876,1267.11,      7.56449, 15.05754,50.00000,50.00000,1.381782e-08,0.78718,5
510.374,1267.87,      7.14821, 15.19901,50.00000,50.00000,1.381894e-08,0.78719,5
525.773,1268.62,      6.74265, 15.34702,50.00000,50.00000,1.383306e-08,0.78718,5
541.102,1269.38,      6.35113, 15.49524,50.00000,50.00000,1.379775e-08,0.78717,5
556.395,1270.13,      5.95762, 15.69960,50.00000,50.00000,1.381159e-08,0.78718,5
571.631,1270.88,      5.56104, 15.82302,50.00000,50.00000,1.381817e-08,0.78719,5
586.863,1271.64,      5.16772, 15.97103,50.00000,50.00000,1.379803e-08,0.78719,5
602.075,1272.39,      4.77458, 16.10575,50.00000,50.00000,1.381428e-08,0.78719,5
617.277,1273.15,      4.38797, 16.26746,50.00000,50.00000,1.381188e-08,0.78719,5
632.47,1273.9,      3.98396, 16.38869,50.00000,50.00000,1.382716e-08,0.78719,5
647.648,1274.66,      3.57785, 16.52341,50.00000,50.00000,1.381919e-08,0.78718,5
662.821,1275.41,      3.21926, 16.63115,50.00000,50.00000,1.382572e-08,0.78719,5
678.036,1276.17,      2.90043, 16.76567,50.00000,50.00000,1.382595e-08,0.78718,5
693.21,1276.92,      2.57142, 16.87341,50.00000,50.00000,1.382000e-08,0.78719,5
708.389,1277.68,      2.32916, 16.99464,50.00000,50.00000,1.379536e-08,0.78719,5
723.577,1278.43,      2.12197, 17.10238,50.00000,50.00000,1.384632e-08,0.78719,5
738.752,1279.19,      1.94139, 17.21687,50.00000,50.00000,1.382857e-08,0.78720,5
753.958,1279.94,      1.78143, 17.34484,50.00000,50.00000,1.381059e-08,0.78719,5
769.181,1280.7,      1.58690, 17.47282,50.00000,50.00000,1.382639e-08,0.78719,5
784.36,1281.45,      1.37631, 17.58056,50.00000,50.00000,1.380961e-08,0.78719,5
794.516,1281.96,      1.22772, 17.66131,50.00000,50.00000,            ,0.44708,5

File: ExpDat_2025_08_06_SL_PS_Blue_Cup_SCF3_isothermal.csv
#EXPORTTYPE:                 ,DATA ALL
#FILE:                       ,2025_08_06_SL_PS_Blue_Cup_Functionalized_250721_P5EER2_V3_4_Isothermal.ngb-ss5
#FORMAT:                     ,NETZSCH5
#FTYPE:                      ,ASCII
#IDENTITY:                   ,250721-P5EER2-V3+4
#DECIMAL:                    ,POINT
#SEPARATOR:                  ,COMMA
#MTYPE:                      ,DSC
#INSTRUMENT:                 ,NETZSCH STA 449F5
#PROJECT:                    ,
#DATE/TIME:                  ,8/6/2025 12:56:57 PM (UTC-4)
#CORR. FILE:                 ,
#TEMPCAL:                    ,05-05-2025 14:38
#SENSITIVITY:                ,28-06-2023 13:53
#LABORATORY:                 ,Tran/AAG
#OPERATOR:                   ,Stanley
#REMARK:                     ,2025_03_29_SL_005d_M1_isothermal
#SAMPLE:                     ,250721-P5EER2-V3+4
#SAMPLE MASS /mg:            ,4.97
#MATERIAL:                   ,Polystyrene
#REFERENCE:                  ,
#REFERENCE MASS /mg:         ,0
#TYPE OF CRUCIBLE:           ,Al2O3 85 ‘l, open
#SAMPLE CRUCIBLE MASS /mg:   ,0
#REFERENCE CRUCIBLE MASS /mg:,0
#DSC RANGE /‘V:              ,5000
#TG RANGE /mg:               ,35000
#TAU-R:                      ,---
#CORR. CODE:                 ,000
#EXO:                        ,-1
#RANGE:                      ,30›C....800›C/0.0....20.0K/min
#SEGMENT:                    ,S1-5/5
#SEG. 1:                     ,30›C/10.0(K/min)/100›C
#SEG. 2:                     ,100›C/00:10/100›C
#SEG. 3:                     ,100›C/5.0(K/min)/300›C
#SEG. 4:                     ,300›C/20:00/300›C
#SEG. 5:                     ,300›C/20.0(K/min)/800›C

##Temp./›C,Time/min,DSC/(mW/mg),Mass/%,Gas Flow(purge2)/(ml/min),Gas Flow(protective)/(ml/min),TIC(scan:1)/A,Sensit./(uV/mW),Segment
 29.01400,   0.00000,      0.64854,    100,50.00000,50.00000,            ,0.92337,1
 73.67000,   6.32000,      2.66974,     96.23038,50.00000,50.00000,1.334049e-08,0.92423,1
103.601,   9.82000,      1.33154,     94.26579,50.00000,50.00000,1.335223e-08,0.92485,2
109.909,  12.98000,      0.13457,     92.09195,50.00000,50.00000,1.335709e-08,0.92540,2
107.799,  16.14000,     -0.34747,     90.54628,50.00000,50.00000,1.336172e-08,0.92585,2
115.225,  21.60000,      1.17532,     92.15111,50.00000,50.00000,1.335710e-08,0.92619,3
150.408,  27.92000,      2.06177,     93.31891,50.00000,50.00000,1.337953e-08,0.92518,3
184.821,  34.24000,      1.97865,     93.26881,50.00000,50.00000,1.338258e-08,0.92352,3
216.58,  40.56000,      1.97884,     92.95694,50.00000,50.00000,1.335486e-08,0.92214,3
248.02,  46.88000,      1.96142,     91.99175,50.00000,50.00000,1.333853e-08,0.92104,3
279.502,  53.20000,      1.86537,     90.93320,50.00000,50.00000,1.332451e-08,0.92013,3
302.575,  63.30000,     -0.97762,     88.46579,50.00000,43.00000,1.326272e-08,0.91901,4
300.073,  79.10000,     -0.85985,     86.24406,50.00000,43.00000,1.328788e-08,0.91831,4
300.034,  94.90000,     -0.86527,     84.96922,50.00000,43.00000,1.330408e-08,0.91851,4
300.01, 110.7,     -0.86837,     84.12475,50.00000,43.00000,1.327937e-08,0.91909,4
300.019, 126.5,     -0.87208,     83.50342,50.00000,43.00000,1.329388e-08,0.91848,4
300.017, 142.3,     -0.87344,     83.00483,50.00000,43.00000,1.328841e-08,0.91289,4
300.012, 158.1,     -0.87831,     82.50181,50.00000,43.00000,1.326755e-08,0.90332,4
300.005, 173.9,     -0.87909,     82.04869,50.00000,43.00000,1.325463e-08,0.89192,4
300.022, 189.7,     -0.88574,     81.61630,50.00000,43.00000,1.324434e-08,0.87956,4
300.015, 205.5,     -0.88865,     81.22254,50.00000,44.00000,1.327773e-08,0.86645,4
300.018, 221.3,     -0.88534,     80.77626,50.00000,43.00000,1.322918e-08,0.85218,4
300.018, 237.1,     -0.88690,     80.35734,50.00000,43.00000,1.328087e-08,0.83711,4
300.006, 252.9,     -0.88728,     79.98632,50.00000,43.00000,1.325751e-08,0.82121,4
300.025, 268.7,     -0.88808,     79.56519,50.00000,43.00000,1.323129e-08,0.80444,4
300.009, 284.5,     -0.88553,     79.13742,50.00000,44.00000,1.325689e-08,0.78582,4
300.014, 300.3,     -0.88826,     78.69115,50.00000,44.00000,1.323073e-08,0.78606,4
300.018, 316.1,     -0.88729,     78.25634,50.00000,44.00000,1.321479e-08,0.78708,4
300.021, 331.9,     -0.88749,     77.85573,50.00000,44.00000,1.329755e-08,0.78720,4
300.023, 347.7,     -0.88496,     77.47103,50.00000,44.00000,1.325793e-08,0.78718,4
300.011, 363.5,     -0.88611,     77.07726,50.00000,44.00000,1.325850e-08,0.78719,4
300.001, 379.3,     -0.88493,     76.66298,50.00000,45.00000,1.325565e-08,0.78720,4
300.011, 395.1,     -0.88182,     76.23280,50.00000,45.00000,1.323708e-08,0.78719,4
300.028, 410.9,     -0.87989,     75.84567,50.00000,45.00000,1.322873e-08,0.78721,4
300.016, 426.7,     -0.87949,     75.46559,50.00000,45.00000,1.322873e-08,0.78719,4
300.018, 442.5,     -0.87501,     75.07404,50.00000,44.00000,1.322332e-08,0.78719,4
300.019, 458.3,     -0.86935,     74.65070,50.00000,44.00000,1.321344e-08,0.78720,4
300.019, 474.1,     -0.86526,     74.21590,50.00000,44.00000,1.321639e-08,0.78719,4
300.02, 489.9,     -0.85804,     73.76519,50.00000,44.00000,1.326041e-08,0.78719,4
300.012, 505.7,     -0.85374,     73.37364,50.00000,44.00000,1.322369e-08,0.78720,4
300.018, 521.5,     -0.84556,     72.95936,50.00000,44.00000,1.321166e-08,0.78719,4
300.019, 537.3,     -0.84010,     72.47686,50.00000,44.00000,1.320039e-08,0.78720,4
300.021, 553.1,     -0.82216,     72.08531,50.00000,44.00000,1.321363e-08,0.78720,4
300.025, 568.9,     -0.81865,     71.66177,50.00000,44.00000,1.318214e-08,0.78719,4
300.012, 584.7,     -0.81260,     71.24527,50.00000,44.00000,1.318242e-08,0.78719,4
300.022, 600.5,     -0.80364,     70.79235,50.00000,44.00000,1.319949e-08,0.78718,4
300.023, 616.3,     -0.79369,     70.38249,50.00000,44.00000,1.316870e-08,0.78721,4
300.029, 632.1,     -0.79253,     69.93400,50.00000,44.00000,1.318510e-08,0.78719,4
300.008, 647.9,     -0.78880,     69.49698,50.00000,44.00000,1.316153e-08,0.78719,4
300.005, 663.7,     -0.78334,     69.07827,50.00000,44.00000,1.316809e-08,0.78720,4
300.011, 679.5,     -0.77827,     68.62515,50.00000,44.00000,1.318435e-08,0.78719,4
300.015, 695.3,     -0.78023,     68.21992,50.00000,44.00000,1.318392e-08,0.78719,4
300.014, 711.1,     -0.77672,     67.76922,50.00000,44.00000,1.315788e-08,0.78721,4
300.019, 726.9,     -0.77614,     67.28451,50.00000,44.00000,1.314582e-08,0.78720,4
300.022, 742.7,     -0.77848,     66.84748,50.00000,44.00000,1.315008e-08,0.78720,4
300.021, 758.5,     -0.77419,     66.42857,50.00000,44.00000,1.315967e-08,0.78720,4
300.006, 774.3,     -0.77359,     65.96881,50.00000,44.00000,1.316756e-08,0.78719,4
300.021, 790.1,     -0.77263,     65.51127,50.00000,44.00000,1.317088e-08,0.78719,4
300.018, 805.9,     -0.77321,     65.08551,50.00000,44.00000,1.316552e-08,0.78719,4
300.022, 821.7,     -0.76853,     64.60060,50.00000,45.00000,1.317112e-08,0.78719,4
300.014, 837.5,     -0.77477,     64.15674,50.00000,45.00000,1.314193e-08,0.78720,4
300.01, 853.3,     -0.77398,     63.74024,50.00000,45.00000,1.315425e-08,0.78719,4
300.018, 869.1,     -0.77399,     63.26901,50.00000,44.00000,1.314002e-08,0.78718,4
300.01, 884.9,     -0.77749,     62.83199,50.00000,45.00000,1.314465e-08,0.78718,4
300.017, 900.7,     -0.78842,     62.36076,50.00000,45.00000,1.314188e-08,0.78719,4
[...]
300.009,1106.1,     -0.80635,     56.68813,50.00000,45.00000,1.306482e-08,0.78719,4
300.018,1121.9,     -0.80831,     56.23964,50.00000,45.00000,1.305083e-08,0.78718,4
300.022,1137.7,     -0.80871,     55.81167,50.00000,45.00000,1.307323e-08,0.78719,4
300.01,1153.5,     -0.81045,     55.37465,50.00000,44.00000,1.305065e-08,0.78719,4
300.022,1169.3,     -0.80754,     54.96499,50.00000,44.00000,1.304746e-08,0.78719,4
300.024,1185.1,     -0.80929,     54.52555,50.00000,44.00000,1.302779e-08,0.78718,4
300.029,1200.9,     -0.81573,     54.06358,50.00000,45.00000,1.301032e-08,0.78718,4
300.015,1216.7,     -0.81318,     53.65151,50.00000,45.00000,1.304290e-08,0.78719,4
300.026,1232.5,     -0.73129,     53.36700,50.00000,44.00000,1.302077e-08,0.78719,4
300.012,1248.3,     -0.73362,     52.79779,50.00000,44.00000,1.299907e-08,0.78719,4
300.451,1257.36,     -0.29637,     52.69537,50.00000,50.00000,1.302640e-08,0.78719,5
309.431,1258.14,      4.84209,     53.96781,50.00000,50.00000,1.299960e-08,0.78718,5
323.576,1258.93,      7.36501,     54.42093,50.00000,50.00000,1.301368e-08,0.78718,5
337.041,1259.72,      7.64951,     54.57344,50.00000,50.00000,1.300902e-08,0.78719,5
352.74,1260.52,      9.16122,     54.90342,50.00000,50.00000,1.302815e-08,0.78718,5
369.812,1261.31,     10.03320,     54.90563,50.00000,50.00000,1.301401e-08,0.78718,5
386.872,1262.1,     10.41246,     53.97243,50.00000,50.00000,1.301126e-08,0.78719,5
404.151,1262.88,     10.81730,     50.89477,50.00000,50.00000,1.302789e-08,0.78719,5
421.385,1263.67,     12.41362,     42.75010,50.00000,50.00000,1.303729e-08,0.78719,5
438.365,1264.46,     13.67601,     25.92334,50.00000,50.00000,1.301648e-08,0.78719,5
455.157,1265.26,     12.50678,      7.32575,50.00000,50.00000,1.301322e-08,0.78720,5
471.81,1266.05,     10.51380,     -0.45473,50.00000,50.00000,1.303716e-08,0.78719,5
488.285,1266.84,      9.31742,     -2.09376,50.00000,50.00000,1.301200e-08,0.78720,5
504.592,1267.62,      8.69772,     -2.22797,50.00000,50.00000,1.300024e-08,0.78720,5
520.757,1268.41,      8.25807,     -2.13239,50.00000,50.00000,1.301312e-08,0.78719,5
536.813,1269.2,      7.85625,     -2.01187,50.00000,50.00000,1.298984e-08,0.78719,5
552.819,1269.99,      7.48885,     -1.84789,50.00000,50.00000,1.298922e-08,0.78720,5
568.797,1270.79,      7.13751,     -1.68390,50.00000,50.00000,1.303113e-08,0.78719,5
584.736,1271.58,      6.80785,     -1.54748,50.00000,50.00000,1.300722e-08,0.78719,5
600.66,1272.37,      6.48870,     -1.41771,50.00000,50.00000,1.298959e-08,0.78719,5
616.574,1273.15,      6.19540,     -1.29014,50.00000,50.00000,1.303671e-08,0.78719,5
632.473,1273.94,      5.90731,     -1.12636,50.00000,50.00000,1.299953e-08,0.78719,5
648.351,1274.73,      5.60257,     -1.02616,50.00000,50.00000,1.298556e-08,0.78719,5
664.227,1275.53,      5.28700,     -0.88491,50.00000,50.00000,1.303353e-08,0.78719,5
680.099,1276.32,      4.93851,     -0.77565,50.00000,50.00000,1.300414e-08,0.78719,5
696,1277.11,      4.52214,     -0.67324,50.00000,50.00000,1.301731e-08,0.78720,5
711.892,1277.89,      4.06883,     -0.58451,50.00000,50.00000,1.300397e-08,0.78719,5
727.801,1278.68,      3.54955,     -0.44789,50.00000,50.00000,1.296913e-08,0.78720,5
743.719,1279.47,      2.98822,     -0.33863,50.00000,50.00000,1.300283e-08,0.78720,5
759.596,1280.27,      2.39806,     -0.22938,50.00000,50.00000,1.299417e-08,0.78720,5
775.479,1281.06,      1.80294,     -0.14748,50.00000,50.00000,1.300755e-08,0.78719,5
791.369,1281.85,      1.22712,-3.601610e-02,50.00000,50.00000,            ,0.44835,5
794.487,1282,      1.11553,-3.601610e-02,50.00000,50.00000,            ,0.44710,5