Folder: data-visualizer/data/TGA/commercial_samples (part 8)

File: ExpDat_2025_08_23_SL_PS_Petri_Dish_SCF3_250721_P5EER2_dynamic.csv
#EXPORTTYPE:                 ,DATA ALL
#FILE:                       ,2025_08_23_SL_PS_Petri_Dish_SCF3_250721_P5EER2_V1_2_Dynamic.ngb-ss5
#FORMAT:                     ,NETZSCH5
#FTYPE:                      ,ASCII
#IDENTITY:                   ,PS-Petri-Dish-SCF3
#DECIMAL:                    ,POINT
#SEPARATOR:                  ,COMMA
#MTYPE:                      ,DSC
#INSTRUMENT:                 ,NETZSCH STA 449F5
#PROJECT:                    ,Polystyrene
#DATE/TIME:                  ,8/23/2025 10:46:43 AM (UTC-4)
#CORR. FILE:                 ,
#TEMPCAL:                    ,05-05-2025 14:38
#SENSITIVITY:                ,28-06-2023 13:53
#LABORATORY:                 ,Tran/AAG
#OPERATOR:                   ,Stanley
#REMARK:                     ,2025_03_20_Styrofoam_dynamic
#SAMPLE:                     ,PS-Petri-Dish-SCF3
#SAMPLE MASS /mg:            ,4.5
#MATERIAL:                   ,Polystyrene
#REFERENCE:                  ,
#REFERENCE MASS /mg:         ,0
#TYPE OF CRUCIBLE:           ,Al2O3 85 ‘l, open
#SAMPLE CRUCIBLE MASS /mg:   ,0
#REFERENCE CRUCIBLE MASS /mg:,0
#DSC RANGE /‘V:              ,5000
#TG RANGE /mg:               ,35000
#TAU-R:                      ,---
#CORR. CODE:                 ,000
#EXO:                        ,-1
#RANGE:                      ,20›C....800›C/0.0....20.0K/min
#SEGMENT:                    ,S1-4/4
#SEG. 1:                     ,20›C/5.0(K/min)/100›C
#SEG. 2:                     ,100›C/00:05/100›C
#SEG. 3:                     ,100›C/1.0(K/min)/400›C
#SEG. 4:                     ,400›C/20.0(K/min)/800›C

##Temp./›C,Time/min,DSC/(mW/mg),Mass/%,Gas Flow(purge2)/(ml/min),Gas Flow(protective)/(ml/min),TIC(scan:1)/A,Sensit./(uV/mW),Segment
 31.12600,  0.00000,      0.41259,100,50.00000,50.00000,            ,0.92376,1
 37.15000,  4.80000,      0.48348,101.013,50.00000,50.00000,1.018819e-08,0.92413,1
 57.82800,  9.60000,      1.67602,103.424,50.00000,50.00000,1.017702e-08,0.92444,1
 86.90200, 14.40000,      2.07980,104.397,50.00000,50.00000,1.019311e-08,0.92500,1
105.426, 18.39917,      0.98395,102.977,50.00000,50.00000,1.016461e-08,0.92563,2
107.754, 22.33250,-7.711953e-02,101.016,50.00000,50.00000,1.013898e-08,0.92609,3
107.356, 27.13250, 2.822443e-02,100.342,50.00000,50.00000,1.016282e-08,0.92612,3
110.099, 31.93250,      0.29339,100.191,50.00000,50.00000,1.014602e-08,0.92533,3
114.86, 36.73250,      0.39947,100.078,50.00000,50.00000,1.015984e-08,0.92377,3
119.932, 41.53250,      0.40782, 99.89933,50.00000,50.00000,1.016183e-08,0.92162,3
124.89, 46.33250,      0.40029, 99.79378,50.00000,51.00000,1.013513e-08,0.92009,3
129.722, 51.13250,      0.39759, 99.73600,50.00000,51.00000,1.014793e-08,0.91928,3
134.519, 55.93250,      0.39847, 99.74356,50.00000,51.00000,1.015078e-08,0.91891,3
139.315, 60.73250,      0.40220, 99.74356,50.00000,51.00000,1.013274e-08,0.91894,3
144.116, 65.53250,      0.40264, 99.78378,50.00000,51.00000,1.014035e-08,0.91905,3
148.936, 70.33250,      0.39918, 99.81400,50.00000,51.00000,1.011715e-08,0.91911,3
153.74, 75.13250,      0.39688, 99.84156,50.00000,51.00000,1.012381e-08,0.91900,3
158.519, 79.93250,      0.39480, 99.84667,50.00000,51.00000,1.015025e-08,0.91874,3
163.35, 84.73250,      0.39238, 99.90689,50.00000,51.00000,1.009747e-08,0.91833,3
168.129, 89.53250,      0.38694, 99.90444,50.00000,51.00000,1.012780e-08,0.91780,3
172.939, 94.33250,      0.38285, 99.89200,50.00000,51.00000,1.010678e-08,0.91720,3
177.727, 99.13250,      0.37801, 99.86933,50.00000,51.00000,1.011443e-08,0.91654,3
182.541,103.933,      0.37183, 99.81889,50.00000,51.00000,1.011890e-08,0.91586,3
187.327,108.733,      0.36680, 99.73356,50.00000,51.00000,1.012174e-08,0.91518,3
192.138,113.532,      0.35945, 99.62044,50.00000,51.00000,1.010754e-08,0.91445,3
196.943,118.332,      0.35247, 99.48956,50.00000,51.00000,1.011473e-08,0.91374,3
201.757,123.132,      0.34430, 99.34644,50.00000,51.00000,1.008400e-08,0.91302,3
206.535,127.933,      0.33765, 99.17289,50.00000,51.00000,1.011433e-08,0.91229,3
211.343,132.732,      0.32883, 98.96667,50.00000,51.00000,1.010288e-08,0.91152,3
216.135,137.532,      0.31641, 98.74800,50.00000,51.00000,1.011446e-08,0.91075,3
220.918,142.333,      0.30529, 98.50911,50.00000,51.00000,1.011035e-08,0.90998,3
225.724,147.132,      0.29072, 98.23267,50.00000,51.00000,1.011486e-08,0.90915,3
230.511,151.933,      0.27484, 97.99889,50.00000,51.00000,1.011038e-08,0.90834,3
235.327,156.732,      0.25422, 97.73978,50.00000,51.00000,1.010591e-08,0.90749,3
240.109,161.532,      0.23705, 97.43311,50.00000,51.00000,1.010419e-08,0.90665,3
244.922,166.333,      0.21771, 97.13400,50.00000,51.00000,1.010168e-08,0.90574,3
249.721,171.132,      0.19454, 96.79444,50.00000,51.00000,1.010100e-08,0.90487,3
254.52,175.933,      0.17257, 96.44000,50.00000,51.00000,1.010425e-08,0.90393,3
259.319,180.732,      0.15102, 96.09311,50.00000,51.00000,1.009365e-08,0.90300,3
264.115,185.532,      0.12222, 95.73111,50.00000,51.00000,1.011537e-08,0.90207,3
268.93,190.333, 9.541813e-02, 95.34400,50.00000,51.00000,1.011574e-08,0.90109,3
273.733,195.132, 7.105405e-02, 94.95178,50.00000,51.00000,1.008829e-08,0.90011,3
278.506,199.933, 4.264965e-02, 94.55956,50.00000,51.00000,1.009246e-08,0.89914,3
283.314,204.732, 1.922288e-02, 94.12200,50.00000,51.00000,1.010630e-08,0.89810,3
288.115,209.532,-1.231941e-02, 93.73489,50.00000,51.00000,1.011515e-08,0.89709,3
292.9,214.333,-4.698838e-02, 93.31000,50.00000,51.00000,1.010308e-08,0.89605,3
297.709,219.132,-8.419770e-02, 92.92044,50.00000,51.00000,1.011057e-08,0.89501,3
302.507,223.933,     -0.12529, 92.50044,50.00000,51.00000,1.009842e-08,0.89390,3
307.301,228.732,     -0.16685, 92.09578,50.00000,51.00000,1.012510e-08,0.89282,3
312.093,233.532,     -0.20781, 91.64311,50.00000,51.00000,1.010705e-08,0.89169,3
316.907,238.333,     -0.25366, 91.15289,50.00000,51.00000,1.010937e-08,0.89059,3
321.727,243.132,     -0.30182, 90.66267,50.00000,51.00000,1.011613e-08,0.88942,3
326.513,247.933,     -0.34878, 90.07933,50.00000,51.00000,1.008933e-08,0.88828,3
331.322,252.732,     -0.39654, 89.42333,50.00000,51.00000,1.010772e-08,0.88714,3
336.122,257.533,     -0.44780, 88.69422,50.00000,51.00000,1.013154e-08,0.88598,3
340.913,262.332,     -0.49652, 87.80422,50.00000,51.00000,1.010118e-08,0.88475,3
345.717,267.132,     -0.55291, 86.62244,50.00000,51.00000,1.008445e-08,0.88356,3
350.523,271.933,     -0.61573, 85.06378,50.00000,51.00000,1.009521e-08,0.88230,3
355.305,276.733,     -0.66386, 82.93689,50.00000,51.00000,1.011007e-08,0.88108,3
360.112,281.533,     -0.71702, 79.85711,50.00000,51.00000,1.009409e-08,0.87985,3
364.916,286.332,     -0.76594, 75.55044,50.00000,51.00000,1.009482e-08,0.87855,3
369.711,291.132,     -0.80722, 69.39089,50.00000,51.00000,1.009185e-08,0.87729,3
374.497,295.933,     -0.85635, 60.98644,50.00000,51.00000,1.011535e-08,0.87601,3
379.306,300.733,     -0.93683, 50.34178,50.00000,51.00000,1.010570e-08,0.87468,3
384.101,305.533,     -1.07943, 38.74178,50.00000,51.00000,1.010191e-08,0.87339,3
388.912,310.332,     -1.29139, 28.12978,50.00000,51.00000,1.009258e-08,0.87208,3
393.703,315.132,     -1.51087, 20.12756,50.00000,52.00000,1.008256e-08,0.87074,3
398.506,319.933,     -1.70507, 14.97356,50.00000,52.00000,1.011063e-08,0.86936,3
400.154,321.279,     -1.46790, 14.01578,50.00000,52.00000,1.011408e-08,0.86899,4
[...]
471.431,325.239,      8.70141,  9.55311,50.00000,52.00000,1.009314e-08,0.86786,4
478.9,325.599,      8.67195,  8.96000,50.00000,52.00000,1.010534e-08,0.86777,4
486.421,325.959,      8.67901,  8.64067,50.00000,52.00000,1.009824e-08,0.86767,4
494.028,326.319,      8.68351,  8.46467,50.00000,52.00000,1.009562e-08,0.86753,4
501.627,326.679,      8.61644,  8.40422,50.00000,52.00000,1.010271e-08,0.86744,4
509.223,327.039,      8.48764,  8.40422,50.00000,52.00000,1.009681e-08,0.86734,4
516.794,327.399,      8.34593,  8.43444,50.00000,52.00000,1.010156e-08,0.86724,4
524.358,327.759,      8.20160,  8.44956,50.00000,52.00000,1.011877e-08,0.86714,4
531.902,328.119,      8.04492,  8.46467,50.00000,52.00000,1.008857e-08,0.86704,4
539.428,328.479,      7.87596,  8.49489,50.00000,52.00000,1.007834e-08,0.86694,4
546.944,328.839,      7.69517,  8.56267,50.00000,52.00000,1.010534e-08,0.86680,4
554.444,329.199,      7.50736,  8.60800,50.00000,52.00000,1.010148e-08,0.86670,4
561.908,329.559,      7.31895,  8.63800,50.00000,52.00000,1.008758e-08,0.86661,4
569.371,329.919,      7.13037,  8.69844,50.00000,52.00000,1.010089e-08,0.86651,4
576.813,330.279,      6.94527,  8.75867,50.00000,52.00000,1.010667e-08,0.86641,4
584.256,330.639,      6.75755,  8.84933,50.00000,52.00000,1.009975e-08,0.86632,4
591.674,330.999,      6.56021,  8.90956,50.00000,52.00000,1.011848e-08,0.86622,4
599.079,331.359,      6.37025,  8.97000,50.00000,52.00000,1.009367e-08,0.86612,4
606.464,331.719,      6.17082,  9.03022,50.00000,52.00000,1.009885e-08,0.86597,4
613.846,332.079,      5.96642,  9.09067,50.00000,52.00000,1.010497e-08,0.86588,4
621.2,332.439,      5.75596,  9.15089,50.00000,52.00000,1.009596e-08,0.86578,4
628.544,332.799,      5.54508,  9.21133,50.00000,52.00000,1.011375e-08,0.86568,4
635.886,333.159,      5.34443,  9.27156,50.00000,52.00000,1.010420e-08,0.86558,4
643.226,333.519,      5.13130,  9.36222,50.00000,52.00000,1.008515e-08,0.86548,4
650.564,333.879,      4.91119,  9.41489,50.00000,52.00000,1.007613e-08,0.86538,4
657.879,334.239,      4.68632,  9.48289,50.00000,52.00000,1.011614e-08,0.86529,4
665.198,334.599,      4.44674,  9.54311,50.00000,52.00000,1.011504e-08,0.86514,4
672.495,334.959,      4.20166,  9.57333,50.00000,52.00000,1.010886e-08,0.86504,4
679.796,335.319,      3.95463,  9.64111,50.00000,52.00000,1.010421e-08,0.86494,4
687.088,335.679,      3.70120,  9.69400,50.00000,52.00000,1.009847e-08,0.86485,4
694.37,336.039,      3.43928,  9.75444,50.00000,52.00000,1.011768e-08,0.86474,4
701.686,336.399,      3.18920,  9.81467,50.00000,52.00000,1.009632e-08,0.86464,4
708.966,336.759,      2.92791,  9.87511,50.00000,52.00000,1.011706e-08,0.86455,4
716.25,337.119,      2.65115,  9.93533,50.00000,52.00000,1.009073e-08,0.86440,4
723.542,337.479,      2.38649,  9.99578,50.00000,52.00000,1.010289e-08,0.86431,4
730.823,337.839,      2.11810, 10.04600,50.00000,52.00000,1.011732e-08,0.86421,4
738.101,338.199,      1.83807, 10.10622,50.00000,52.00000,1.011592e-08,0.86409,4
745.386,338.559,      1.55716, 10.16667,50.00000,52.00000,1.010311e-08,0.86401,4
752.66,338.919,      1.27830, 10.19933,50.00000,52.00000,1.009903e-08,0.86390,4
759.936,339.279,      0.98508, 10.25978,50.00000,52.00000,1.011144e-08,0.86381,4
767.209,339.639,      0.70724, 10.32000,50.00000,52.00000,1.009364e-08,0.86371,4
774.469,339.999,      0.42762, 10.38044,50.00000,52.00000,1.010264e-08,0.86356,4
781.746,340.359,      0.14097, 10.44067,50.00000,52.00000,1.009825e-08,0.86346,4
788.994,340.719,     -0.14943, 10.46844,50.00000,52.00000,            ,0.44930,4
794.66,340.999,     -0.37585, 10.49844,50.00000,52.00000,            ,0.44703,4

File: ExpDat_2025_08_24_SL_PS_Red_Solo_Cup_SCF3_Isothermal.csv
#EXPORTTYPE:                 ,DATA ALL
#FILE:                       ,2025_08_24_SL_PS_Red_Solo_Cup_SCF3_Isothermal.ngb-ss5
#FORMAT:                     ,NETZSCH5
#FTYPE:                      ,ASCII
#IDENTITY:                   ,250821-P5EER3-V1+2
#DECIMAL:                    ,POINT
#SEPARATOR:                  ,COMMA
#MTYPE:                      ,DSC
#INSTRUMENT:                 ,NETZSCH STA 449F5
#PROJECT:                    ,Polystyrene
#DATE/TIME:                  ,8/24/2025 11:16:25 AM (UTC-4)
#CORR. FILE:                 ,
#TEMPCAL:                    ,05-05-2025 14:38
#SENSITIVITY:                ,28-06-2023 13:53
#LABORATORY:                 ,Tran/AAG
#OPERATOR:                   ,Stanley
#REMARK:                     ,2025_03_29_SL_005d_M1_isothermal
#SAMPLE:                     ,250821-P5EER3-V1+2
#SAMPLE MASS /mg:            ,4.10
#MATERIAL:                   ,Polystyrene
#REFERENCE:                  ,
#REFERENCE MASS /mg:         ,0
#TYPE OF CRUCIBLE:           ,Al2O3 85 ‘l, open
#SAMPLE CRUCIBLE MASS /mg:   ,0
#REFERENCE CRUCIBLE MASS /mg:,0
#DSC RANGE /‘V:              ,5000
#TG RANGE /mg:               ,35000
#TAU-R:                      ,---
#CORR. CODE:                 ,000
#EXO:                        ,-1
#RANGE:                      ,30›C....800›C/0.0....20.0K/min
#SEGMENT:                    ,S1-5/5
#SEG. 1:                     ,30›C/10.0(K/min)/100›C
#SEG. 2:                     ,100›C/00:10/100›C
#SEG. 3:                     ,100›C/5.0(K/min)/300›C
#SEG. 4:                     ,300›C/20:00/300›C
#SEG. 5:                     ,300›C/20.0(K/min)/800›C

##Temp./›C,Time/min,DSC/(mW/mg),Mass/%,Gas Flow(purge2)/(ml/min),Gas Flow(protective)/(ml/min),TIC(scan:1)/A,Sensit./(uV/mW),Segment
 28.26500,   0.00000,      0.94410,    100,50.00000,54.00000,            ,0.92322,1
 74.88500,   6.40000,      3.63722,     95.80024,50.00000,52.00000,9.955205e-09,0.92415,1
104.007,   9.88000,      1.79591,     93.42732,50.00000,52.00000,9.969114e-09,0.92479,2
110.068,  13.08000,      0.17651,     90.83073,50.00000,52.00000,9.957756e-09,0.92537,2
107.772,  16.28000,     -0.43982,     88.99561,50.00000,52.00000,9.974467e-09,0.92586,2
117.109,  22.00000,      1.61890,     91.17829,50.00000,52.00000,9.988708e-09,0.92618,3
153.163,  28.40000,      2.49845,     92.46976,50.00000,52.00000,9.980865e-09,0.92503,3
187.696,  34.80000,      2.32860,     92.61610,50.00000,52.00000,9.988983e-09,0.92343,3
219.785,  41.20000,      2.24968,     92.55537,50.00000,52.00000,9.958040e-09,0.92203,3
251.622,  47.60000,      2.16755,     91.81585,50.00000,52.00000,9.955115e-09,0.92092,3
283.504,  54.00000,      2.01938,     90.10780,50.00000,52.00000,9.946590e-09,0.92001,3
301.734,  65.56000,     -1.10879,     84.82366,50.00000,52.00000,9.943927e-09,0.91880,4
300.031,  81.56000,     -0.95668,     81.62268,50.00000,52.00000,9.938857e-09,0.91826,4
300.021,  97.56000,     -0.96022,     79.78780,50.00000,52.00000,9.937424e-09,0.91853,4
300.017, 113.56,     -0.96281,     78.62049,50.00000,52.00000,9.921847e-09,0.91915,4
300.016, 129.56,     -0.96257,     77.75415,50.00000,52.00000,9.921799e-09,0.91783,4
300.017, 145.56,     -0.96541,     77.11951,50.00000,52.00000,9.927631e-09,0.91119,4
300.015, 161.56,     -0.96446,     76.58951,50.00000,52.00000,9.909725e-09,0.90086,4
300.032, 177.56,     -0.96259,     76.12878,50.00000,52.00000,9.902135e-09,0.88898,4
300.009, 193.56,     -0.96351,     75.65415,50.00000,52.00000,9.906158e-09,0.87640,4
300.029, 209.56,     -0.96212,     75.29537,50.00000,52.00000,9.908785e-09,0.86273,4
300.008, 225.56,     -0.96658,     74.93951,50.00000,52.00000,9.919717e-09,0.84821,4
300.012, 241.56,     -0.96682,     74.57805,50.00000,53.00000,9.907512e-09,0.83254,4
300.012, 257.56,     -0.96611,     74.30756,50.00000,53.00000,9.878396e-09,0.81625,4
300.008, 273.56,     -0.96729,     73.98195,50.00000,53.00000,9.886382e-09,0.79933,4
300.006, 289.56,     -0.96469,     73.69780,50.00000,53.00000,9.897952e-09,0.78400,4
300.007, 305.56,     -0.96540,     73.40244,50.00000,53.00000,9.899144e-09,0.78665,4
300.02, 321.56,     -0.96802,     73.13756,50.00000,53.00000,9.927617e-09,0.78715,4
300.016, 337.56,     -0.96990,     72.87268,50.00000,53.00000,9.892277e-09,0.78720,4
300.013, 353.56,     -0.96777,     72.58024,50.00000,53.00000,9.910718e-09,0.78720,4
300.02, 369.56,     -0.96872,     72.28220,50.00000,53.00000,9.898800e-09,0.78719,4
300.007, 385.56,     -0.96942,     72.04220,50.00000,53.00000,9.892575e-09,0.78719,4
300.018, 401.56,     -0.97345,     71.75244,50.00000,53.00000,9.877615e-09,0.78720,4
300.017, 417.56,     -0.97108,     71.49854,50.00000,53.00000,9.867117e-09,0.78720,4
300.02, 433.56,     -0.97345,     71.23927,50.00000,53.00000,9.831594e-09,0.78719,4
300.01, 449.56,     -0.97391,     70.97707,50.00000,53.00000,9.792285e-09,0.78719,4
300.011, 465.56,     -0.97084,     70.72878,50.00000,53.00000,9.805591e-09,0.78718,4
300.008, 481.56,     -0.97415,     70.43341,50.00000,53.00000,9.788843e-09,0.78720,4
300.014, 497.56,     -0.97155,     70.20707,50.00000,53.00000,9.743657e-09,0.78719,4
300.022, 513.56,     -0.97535,     69.91195,50.00000,53.00000,9.759447e-09,0.78720,4
300.01, 529.56,     -0.97651,     69.61659,50.00000,54.00000,9.749821e-09,0.78719,4
300.015, 545.56,     -0.97510,     69.39317,50.00000,54.00000,9.721540e-09,0.78720,4
300.01, 561.56,     -0.97746,     69.13098,50.00000,54.00000,9.693771e-09,0.78718,4
300.017, 577.56,     -0.97747,     68.84415,50.00000,54.00000,9.702057e-09,0.78719,4
300.023, 593.56,     -0.97889,     68.58195,50.00000,54.00000,9.687114e-09,0.78718,4
300.018, 609.56,     -0.97629,     68.30049,50.00000,54.00000,9.678585e-09,0.78720,4
300.023, 625.56,     -0.97889,     68.01341,50.00000,54.00000,9.687611e-09,0.78719,4
300.016, 641.56,     -0.97983,     67.74585,50.00000,54.00000,9.678391e-09,0.78720,4
300.017, 657.56,     -0.98007,     67.47268,50.00000,54.00000,9.700287e-09,0.78719,4
299.998, 673.56,     -0.98075,     67.20780,50.00000,54.00000,9.682966e-09,0.78719,4
300.011, 689.56,     -0.97746,     66.96488,50.00000,54.00000,9.732394e-09,0.78720,4
300.031, 705.56,     -0.97748,     66.65049,50.00000,54.00000,9.729503e-09,0.78719,4
300.031, 721.56,     -0.98056,     66.37439,50.00000,53.00000,9.737404e-09,0.78718,4
300.019, 737.56,     -0.98196,     66.08195,50.00000,53.00000,9.755430e-09,0.78719,4
300.012, 753.56,     -0.98361,     65.78951,50.00000,53.00000,9.743758e-09,0.78720,4
300.023, 769.56,     -0.97937,     65.43073,50.00000,54.00000,9.758616e-09,0.78720,4
300.007, 785.56,     -0.98171,     65.15488,50.00000,54.00000,9.780710e-09,0.78720,4
300.025, 801.56,     -0.98551,     64.87341,50.00000,54.00000,9.769128e-09,0.78720,4
300.008, 817.56,     -0.98242,     64.53390,50.00000,54.00000,9.755686e-09,0.78719,4
300.015, 833.56,     -0.98172,     64.20829,50.00000,54.00000,9.779312e-09,0.78719,4
300.018, 849.56,     -0.98503,     63.91024,50.00000,54.00000,9.751213e-09,0.78720,4
300.016, 865.56,     -0.98621,     63.60122,50.00000,54.00000,9.780925e-09,0.78719,4
300.017, 881.56,     -0.98621,     63.30610,50.00000,54.00000,9.766289e-09,0.78719,4
300.015, 897.56,     -0.98692,     63.01073,50.00000,54.00000,9.754144e-09,0.78719,4
300.022, 913.56,     -0.98622,     62.68780,50.00000,54.00000,9.734765e-09,0.78719,4
[...]
300.024,1089.56,     -0.99591,     59.33537,50.00000,54.00000,9.678905e-09,0.78719,4
300.016,1105.56,     -0.99992,     58.99585,50.00000,54.00000,9.666798e-09,0.78720,4
300.018,1121.56,     -0.99638,     58.73098,50.00000,54.00000,9.669681e-09,0.78720,4
300.017,1137.56,     -0.99685,     58.41366,50.00000,54.00000,9.652164e-09,0.78719,4
300.013,1153.56,     -0.99945,     58.07976,50.00000,54.00000,9.640123e-09,0.78718,4
300.023,1169.56,     -1.00135,     57.76805,50.00000,54.00000,9.635863e-09,0.78719,4
300.02,1185.56,     -1.00135,     57.44512,50.00000,54.00000,9.625772e-09,0.78719,4
300.012,1201.56,     -1.00039,     57.18024,50.00000,54.00000,9.629384e-09,0.78720,4
300.008,1217.56,     -1.00062,     56.87122,50.00000,54.00000,9.623413e-09,0.78719,4
300.011,1233.56,     -1.00181,     56.56756,50.00000,54.00000,9.594256e-09,0.78719,4
300.017,1249.56,     -0.99591,     56.27244,50.00000,54.00000,9.609561e-09,0.78719,4
300.682,1257.39,     -0.41353,     56.40488,50.00000,54.00000,9.601870e-09,0.78719,5
310.35,1258.19,      5.26292,     58.33098,50.00000,54.00000,9.603568e-09,0.78719,5
324.452,1258.99,      8.00856,     58.92146,50.00000,54.00000,9.608270e-09,0.78718,5
338.125,1259.79,      8.43798,     59.19463,50.00000,54.00000,9.596890e-09,0.78718,5
354.271,1260.59,     10.11151,     59.68293,50.00000,54.00000,9.613468e-09,0.78720,5
371.584,1261.39,     10.93871,     59.72439,50.00000,54.00000,9.597326e-09,0.78719,5
388.94,1262.19,     11.20573,     59.04000,50.00000,54.00000,9.594793e-09,0.78720,5
406.543,1262.99,     11.63260,     55.86390,50.00000,54.00000,9.590716e-09,0.78720,5
424.018,1263.79,     12.49540,     46.67537,50.00000,54.00000,9.610188e-09,0.78720,5
441.273,1264.59,     13.68573,     25.77317,50.00000,54.00000,9.598858e-09,0.78719,5
458.305,1265.39,     12.65454,      5.32341,50.00000,54.00000,9.625636e-09,0.78720,5
475.182,1266.19,     10.62853,     -1.64390,50.00000,54.00000,9.596989e-09,0.78718,5
491.88,1266.99,      9.61719,     -3.01805,50.00000,54.00000,9.583348e-09,0.78719,5
508.395,1267.79,      9.02429,     -3.18366,50.00000,54.00000,9.595324e-09,0.78719,5
524.797,1268.59,      8.57355,     -3.19195,50.00000,54.00000,9.581620e-09,0.78719,5
541.096,1269.39,      8.12925,     -3.13390,50.00000,54.00000,9.583928e-09,0.78718,5
557.341,1270.19,      7.71085,     -3.01805,50.00000,54.00000,9.585006e-09,0.78719,5
573.558,1270.99,      7.28761,     -2.85244,50.00000,54.00000,9.602954e-09,0.78719,5
589.755,1271.79,      6.84736,     -2.68415,50.00000,54.00000,9.611431e-09,0.78719,5
605.913,1272.59,      6.39848,     -2.55171,50.00000,54.00000,9.581960e-09,0.78720,5
622.053,1273.39,      5.93297,     -2.35293,50.00000,54.00000,9.578051e-09,0.78720,5
638.188,1274.19,      5.46127,     -2.20415,50.00000,54.00000,9.584724e-09,0.78719,5
654.32,1274.99,      4.95087,     -2.03854,50.00000,54.00000,9.592585e-09,0.78720,5
670.422,1275.79,      4.39900,     -1.90049,50.00000,54.00000,9.583063e-09,0.78719,5
686.532,1276.59,      3.84760,     -1.73488,50.00000,54.00000,9.585968e-09,0.78719,5
702.652,1277.39,      3.24898,     -1.60244,50.00000,54.00000,9.590870e-09,0.78719,5
718.791,1278.19,      2.63686,     -1.43415,50.00000,54.00000,9.591199e-09,0.78719,5
734.914,1278.99,      1.97534,     -1.31829,50.00000,54.00000,9.584058e-09,0.78719,5
751.045,1279.79,      1.27688,     -1.16927,50.00000,54.00000,9.604827e-09,0.78718,5
767.18,1280.59,      0.54673,     -1.00366,50.00000,54.00000,9.586334e-09,0.78718,5
783.316,1281.39,     -0.19449,     -0.87951,50.00000,54.00000,9.589622e-09,0.78719,5
794.791,1281.96,     -0.70649,     -0.78024,50.00000,54.00000,            ,0.44697,5