Folder: data-visualizer/data/TGA/ps_scf3_flynn_ozawa_wall (part 3)

File: ExpDat_2025_11_18_SL_PS_Tosoh_F1_1K_min.csv
#EXPORTTYPE:                 ,DATA ALL
#FILE:                       ,2025_11_18_SL_PS_Tosoh_F1_1K_min.ngb-ss5
#FORMAT:                     ,NETZSCH5
#FTYPE:                      ,ASCII
#IDENTITY:                   ,PS_Tosoh_F1
#DECIMAL:                    ,POINT
#SEPARATOR:                  ,COMMA
#MTYPE:                      ,DSC
#INSTRUMENT:                 ,NETZSCH STA 449F5
#PROJECT:                    ,
#DATE/TIME:                  ,11/19/2025 11:22:13 AM (UTC-5)
#CORR. FILE:                 ,
#TEMPCAL:                    ,05-05-2025 14:38
#SENSITIVITY:                ,28-06-2023 13:53
#LABORATORY:                 ,Tran
#OPERATOR:                   ,Stan
#REMARK:                     ,
#SAMPLE:                     ,PS_Tosoh_F1
#SAMPLE MASS /mg:            ,4.5
#MATERIAL:                   ,
#REFERENCE:                  ,
#REFERENCE MASS /mg:         ,0
#TYPE OF CRUCIBLE:           ,Al2O3 85 ‘l, open
#SAMPLE CRUCIBLE MASS /mg:   ,0
#REFERENCE CRUCIBLE MASS /mg:,0
#DSC RANGE /‘V:              ,5000
#TG RANGE /mg:               ,35000
#TAU-R:                      ,---
#CORR. CODE:                 ,000
#EXO:                        ,-1
#RANGE:                      ,20›C....800›C/0.0....20.0K/min
#SEGMENT:                    ,S1-5/5
#SEG. 1:                     ,20›C/5.0(K/min)/100›C
#SEG. 2:                     ,100›C/00:05/100›C
#SEG. 3:                     ,100›C/10.0(K/min)/200›C
#SEG. 4:                     ,200›C/1.0(K/min)/600›C
#SEG. 5:                     ,600›C/20.0(K/min)/800›C

##Temp./›C,Time/min,DSC/(mW/mg),Mass/%,Gas Flow(purge2)/(ml/min),Gas Flow(protective)/(ml/min),TIC(scan:1)/A,Sensit./(uV/mW),Segment
 28.85300,  0.00000,      0.83381,    100,50.00000,62.00000,            ,0.92334,1
 47.26100,  7.60000,      0.97079,     89.80044,50.00000,60.00000,3.333996e-09,0.92429,1
 92.04600, 15.20000,      1.73509,     91.54022,50.00000,60.00000,3.346587e-09,0.92519,1
107.776, 20.96333,      0.13856,     88.46800,50.00000,60.00000,3.356543e-09,0.92602,3
109.219, 22.10333,      0.59048,     89.38556,50.00000,60.00000,3.347920e-09,0.92612,3
114.945, 23.24333,      1.66709,     90.77578,50.00000,60.00000,3.347700e-09,0.92618,3
122.621, 24.38333,      2.29301,     91.69089,50.00000,60.00000,3.353332e-09,0.92620,3
132.635, 25.52333,      3.05117,     92.71667,50.00000,61.00000,3.351306e-09,0.92618,3
144.475, 26.66333,      3.66622,     93.41822,50.00000,61.00000,3.360642e-09,0.92611,3
157.258, 27.80333,      4.08882,     93.88333,50.00000,61.00000,3.362365e-09,0.92599,3
170.474, 28.94333,      4.36731,     94.19511,50.00000,61.00000,3.355357e-09,0.92581,3
183.751, 30.08333,      4.48859,     94.40111,50.00000,61.00000,3.353972e-09,0.92559,3
203.595, 32.09333,      3.19239,     93.52378,50.00000,61.00000,3.359251e-09,0.92508,4
213.239, 36.65333,      0.40434,     91.64578,50.00000,61.00000,3.354193e-09,0.92336,4
213.26, 41.21333,      0.25520,     90.94422,50.00000,61.00000,3.353416e-09,0.92129,4
215.281, 45.77333,      0.45887,     90.66778,50.00000,61.00000,3.358628e-09,0.91996,4
219.086, 50.33333,      0.56664,     90.48422,50.00000,61.00000,3.358395e-09,0.91923,4
223.499, 54.89333,      0.59493,     90.31067,50.00000,61.00000,3.369061e-09,0.91895,4
228.093, 59.45333,      0.60067,     90.19267,50.00000,61.00000,3.360442e-09,0.91894,4
232.646, 64.01333,      0.60146,     90.10200,50.00000,61.00000,3.367861e-09,0.91892,4
237.219, 68.57333,      0.60171,     90.04178,50.00000,61.00000,3.359078e-09,0.91883,4
241.776, 73.13333,      0.60159,     90.03178,50.00000,60.00000,3.358277e-09,0.91864,4
246.336, 77.69333,      0.60251,     90.06178,50.00000,60.00000,3.353979e-09,0.91836,4
250.908, 82.25333,      0.60329,     90.09200,50.00000,60.00000,3.356851e-09,0.91799,4
255.454, 86.81333,      0.60285,     90.15733,50.00000,59.00000,3.355060e-09,0.91754,4
260.019, 91.37333,      0.60246,     90.20511,50.00000,59.00000,3.347977e-09,0.91706,4
264.576, 95.93333,      0.60768,     90.23533,50.00000,59.00000,3.347036e-09,0.91652,4
269.118,100.493,      0.61421,     90.24289,50.00000,58.00000,3.351117e-09,0.91593,4
273.685,105.053,      0.61981,     90.21267,50.00000,58.00000,3.352218e-09,0.91531,4
278.237,109.613,      0.63556,     90.14222,50.00000,58.00000,3.346116e-09,0.91461,4
282.803,114.173,      0.64834,     90.07200,50.00000,58.00000,3.349879e-09,0.91386,4
287.351,118.733,      0.66382,     89.95133,50.00000,58.00000,3.346622e-09,0.91300,4
291.913,123.293,      0.68631,     89.76511,50.00000,58.00000,3.347882e-09,0.91209,4
296.478,127.853,      0.70628,     89.56156,50.00000,58.00000,3.341703e-09,0.91105,4
301.035,132.413,      0.72928,     89.20956,50.00000,58.00000,3.349099e-09,0.90998,4
305.595,136.973,      0.74930,     88.80978,50.00000,58.00000,3.343187e-09,0.90878,4
310.152,141.533,      0.77370,     88.23911,50.00000,59.00000,3.334546e-09,0.90751,4
314.737,146.093,      0.79754,     87.44711,50.00000,61.00000,3.343649e-09,0.90621,4
319.286,150.653,      0.83242,     86.62267,50.00000,62.00000,3.334881e-09,0.90478,4
323.854,155.213,      0.86086,     85.66733,50.00000,62.00000,3.338561e-09,0.90334,4
328.411,159.773,      0.87714,     84.50067,50.00000,62.00000,3.337777e-09,0.90178,4
332.984,164.333,      0.90955,     83.09289,50.00000,63.00000,3.346657e-09,0.90016,4
337.535,168.893,      0.94096,     81.33556,50.00000,63.00000,3.349287e-09,0.89853,4
342.1,173.453,      0.98320,     79.18600,50.00000,63.00000,3.344953e-09,0.89678,4
346.656,178.013,      1.02204,     76.55111,50.00000,63.00000,3.347230e-09,0.89503,4
351.207,182.573,      1.05949,     73.06422,50.00000,64.00000,3.354845e-09,0.89317,4
355.774,187.133,      1.12004,     68.76511,50.00000,64.00000,3.350664e-09,0.89127,4
360.338,191.693,      1.14576,     63.32711,50.00000,64.00000,3.362706e-09,0.88939,4
364.91,196.253,      1.17810,     56.71244,50.00000,64.00000,3.363872e-09,0.88738,4
369.445,200.813,      1.21500,     48.47889,50.00000,64.00000,3.365683e-09,0.88534,4
374.025,205.373,      1.14219,     38.88756,50.00000,64.00000,3.364910e-09,0.88333,4
378.6,209.933,      1.02922,     28.46422,50.00000,64.00000,3.369679e-09,0.88120,4
383.156,214.493,      0.84661,     17.98800,50.00000,65.00000,3.368320e-09,0.87915,4
387.7,219.053,      0.56711,      8.76133,50.00000,65.00000,3.363630e-09,0.87697,4
392.272,223.613,      0.21612,      1.48556,50.00000,65.00000,3.373168e-09,0.87202,4
396.823,228.173,     -0.15138,     -3.89467,50.00000,65.00000,3.369594e-09,0.86728,4
401.39,232.733,     -0.35808,     -7.26089,50.00000,65.00000,3.364187e-09,0.86438,4
405.934,237.293,     -0.50216,     -9.14156,50.00000,65.00000,3.365300e-09,0.86257,4
410.505,241.853,     -0.59438,    -10.03156,50.00000,65.00000,3.376889e-09,0.86187,4
415.066,246.413,     -0.67373,    -10.52667,50.00000,65.00000,3.368997e-09,0.86164,4
419.625,250.973,     -0.73819,    -10.62978,50.00000,65.00000,3.373724e-09,0.86164,4
424.182,255.533,     -0.79103,    -10.55933,50.00000,65.00000,3.374182e-09,0.86172,4
428.728,260.093,     -0.85262,    -10.55933,50.00000,65.00000,3.371905e-09,0.86173,4
433.299,264.653,     -0.90984,    -10.47644,50.00000,65.00000,3.371345e-09,0.86164,4
437.871,269.213,     -0.96979,    -10.44622,50.00000,65.00000,3.371597e-09,0.86144,4
442.421,273.773,     -1.02988,    -10.37844,50.00000,65.00000,3.375835e-09,0.86110,4
[...]
492.587,323.933,     -1.71735,     -9.85289,50.00000,65.00000,3.379212e-09,0.85310,4
497.155,328.493,     -1.76790,     -9.82289,50.00000,65.00000,3.383890e-09,0.85221,4
501.717,333.053,     -1.82144,     -9.82022,50.00000,65.00000,3.384097e-09,0.85134,4
506.262,337.613,     -1.86474,     -9.79511,50.00000,65.00000,3.382840e-09,0.85044,4
510.82,342.173,     -1.90789,     -9.71711,50.00000,65.00000,3.384063e-09,0.84958,4
515.391,346.733,     -1.94061,     -9.73489,50.00000,64.00000,3.382293e-09,0.84869,4
519.949,351.293,     -1.96896,     -9.69711,50.00000,64.00000,3.385912e-09,0.84779,4
524.514,355.853,     -1.99522,     -9.63933,50.00000,64.00000,3.379801e-09,0.84691,4
529.083,360.413,     -2.01352,     -9.63933,50.00000,64.00000,3.379377e-09,0.84601,4
533.63,364.973,     -2.03243,     -9.58156,50.00000,64.00000,3.387210e-09,0.84513,4
538.208,369.533,     -2.04679,     -9.51111,50.00000,64.00000,3.374692e-09,0.84421,4
542.766,374.093,     -2.06141,     -9.53622,50.00000,64.00000,3.373522e-09,0.84330,4
547.323,378.653,     -2.07842,     -9.49600,50.00000,64.00000,3.373252e-09,0.84240,4
551.895,383.213,     -2.09074,     -9.45578,50.00000,64.00000,3.379689e-09,0.84148,4
556.449,387.773,     -2.11110,     -9.44067,50.00000,64.00000,3.374474e-09,0.84059,4
560.998,392.333,     -2.13513,     -9.38289,50.00000,64.00000,3.371883e-09,0.83967,4
565.586,396.893,     -2.15877,     -9.42067,50.00000,64.00000,3.373807e-09,0.83873,4
570.154,401.453,     -2.19281,     -9.34000,50.00000,64.00000,3.376635e-09,0.83783,4
574.692,406.013,     -2.22729,     -9.39289,50.00000,64.00000,3.377467e-09,0.83689,4
579.268,410.573,     -2.26053,     -9.34267,50.00000,64.00000,3.368841e-09,0.83598,4
583.831,415.133,     -2.30291,     -9.35022,50.00000,64.00000,3.369924e-09,0.83503,4
588.404,419.693,     -2.34714,     -9.34000,50.00000,64.00000,3.364813e-09,0.83409,4
592.95,424.253,     -2.39784,     -9.31756,50.00000,64.00000,3.361776e-09,0.83318,4
597.503,428.813,     -2.44892,     -9.30489,50.00000,64.00000,3.357146e-09,0.83222,4
600.789,431.25,     -1.88827,     -9.26467,50.00000,64.00000,3.362964e-09,0.83171,5
611.2,431.82,      2.05196,     -8.79711,50.00000,64.00000,3.363454e-09,0.83161,5
622.67,432.39,      1.63548,     -8.70667,50.00000,64.00000,3.365902e-09,0.83147,5
632.041,432.96,      0.87630,     -8.66889,50.00000,64.00000,3.360578e-09,0.83137,5
642.547,433.53,      1.19157,     -8.54067,50.00000,64.00000,3.364537e-09,0.83124,5
653.76,434.1,      1.13974,     -8.45022,50.00000,64.00000,3.373132e-09,0.83113,5
665.051,434.67,      0.91321,     -8.32933,50.00000,64.00000,3.371565e-09,0.83099,5
676.552,435.24,      0.69103,     -8.26911,50.00000,64.00000,3.374042e-09,0.83089,5
688.166,435.81,      0.41446,     -8.14844,50.00000,64.00000,3.370159e-09,0.83075,5
699.85,436.38, 8.359140e-02,     -8.05800,50.00000,64.00000,3.362307e-09,0.83065,5
711.558,436.95,     -0.27778,     -7.98244,50.00000,64.00000,3.360251e-09,0.83055,5
723.287,437.52,     -0.66579,     -7.90711,50.00000,64.00000,3.365381e-09,0.83040,5
735.003,438.09,     -1.08569,     -7.82422,50.00000,64.00000,3.360323e-09,0.83030,5
746.699,438.66,     -1.51465,     -7.75378,50.00000,64.00000,3.361596e-09,0.83017,5
758.379,439.23,     -1.93072,     -7.69333,50.00000,64.00000,3.367757e-09,0.83007,5
770.04,439.8,     -2.36861,     -7.61800,50.00000,64.00000,3.367386e-09,0.82993,5
781.703,440.37,     -2.80984,     -7.54244,50.00000,64.00000,3.355173e-09,0.82983,5
793.334,440.94,     -3.25667,     -7.48222,50.00000,64.00000,            ,0.44756,5
793.555,440.95,     -3.26300,     -7.48978,50.00000,64.00000,            ,0.44747,5

File: ExpDat_2025_11_18_SL_PS_Tosoh_F1_2K_min.csv
#EXPORTTYPE:                 ,DATA ALL
#FILE:                       ,2025_11_18_SL_PS_Tosoh_F1_2K_min.ngb-ss5
#FORMAT:                     ,NETZSCH5
#FTYPE:                      ,ASCII
#IDENTITY:                   ,PS_Tosoh_F1
#DECIMAL:                    ,POINT
#SEPARATOR:                  ,COMMA
#MTYPE:                      ,DSC
#INSTRUMENT:                 ,NETZSCH STA 449F5
#PROJECT:                    ,
#DATE/TIME:                  ,11/18/2025 2:37:36 PM (UTC-5)
#CORR. FILE:                 ,
#TEMPCAL:                    ,05-05-2025 14:38
#SENSITIVITY:                ,28-06-2023 13:53
#LABORATORY:                 ,Tran
#OPERATOR:                   ,Stan
#REMARK:                     ,
#SAMPLE:                     ,PS_Tosoh_F1
#SAMPLE MASS /mg:            ,4.27
#MATERIAL:                   ,
#REFERENCE:                  ,
#REFERENCE MASS /mg:         ,0
#TYPE OF CRUCIBLE:           ,Al2O3 85 ‘l, open
#SAMPLE CRUCIBLE MASS /mg:   ,0
#REFERENCE CRUCIBLE MASS /mg:,0
#DSC RANGE /‘V:              ,5000
#TG RANGE /mg:               ,35000
#TAU-R:                      ,---
#CORR. CODE:                 ,000
#EXO:                        ,-1
#RANGE:                      ,20›C....800›C/0.0....20.0K/min
#SEGMENT:                    ,S1-5/5
#SEG. 1:                     ,20›C/5.0(K/min)/100›C
#SEG. 2:                     ,100›C/00:05/100›C
#SEG. 3:                     ,100›C/10.0(K/min)/200›C
#SEG. 4:                     ,200›C/2.0(K/min)/600›C
#SEG. 5:                     ,600›C/20.0(K/min)/800›C

##Temp./›C,Time/min,DSC/(mW/mg),Mass/%,Gas Flow(purge2)/(ml/min),Gas Flow(protective)/(ml/min),TIC(scan:1)/A,Sensit./(uV/mW),Segment
 27.70400,  0.00000,      2.12061,    100,50.00000,63.00000,            ,0.92311,1
 42.57200,  6.53333,      0.67058,     85.10960,50.00000,61.00000,3.429871e-09,0.92473,1
 76.04300, 13.06667,      2.41862,     88.49836,50.00000,61.00000,3.447014e-09,0.92508,1
105.473, 18.69917,      1.24175,     87.25059,50.00000,61.00000,3.442651e-09,0.92566,2
108.176, 21.51917,      0.26797,     85.92834,50.00000,61.00000,3.460305e-09,0.92598,3
110.923, 22.49917,      1.25033,     87.38571,50.00000,61.00000,3.456219e-09,0.92607,3
116.172, 23.47917,      2.28260,     88.40047,50.00000,61.00000,3.449898e-09,0.92614,3
122.706, 24.45917,      3.01029,     89.26674,50.00000,61.00000,3.450591e-09,0.92618,3
131.083, 25.43917,      3.90657,     90.24450,50.00000,61.00000,3.462566e-09,0.92620,3
140.946, 26.41917,      4.69874,     91.02061,50.00000,61.00000,3.452392e-09,0.92619,3
151.735, 27.39917,      5.28220,     91.57190,50.00000,61.00000,3.450524e-09,0.92614,3
163.057, 28.37917,      5.70015,     91.94286,50.00000,61.00000,3.454884e-09,0.92606,3
174.618, 29.35917,      5.93398,     92.22084,50.00000,61.00000,3.464890e-09,0.92594,3
186.146, 30.33917,      6.00594,     92.41171,50.00000,61.00000,3.453461e-09,0.92577,3
201.868, 31.79917,      5.25177,     92.00094,50.00000,61.00000,3.458648e-09,0.92545,4
213.335, 34.24917,      2.09406,     90.70023,50.00000,61.00000,3.455052e-09,0.92471,4
217.936, 36.69917,      0.79498,     89.96885,50.00000,61.00000,3.454095e-09,0.92371,4
220.453, 39.14917,      0.52298,     89.65621,50.00000,61.00000,3.454581e-09,0.92249,4
223.171, 41.59917,      0.61487,     89.48923,50.00000,61.00000,3.463464e-09,0.92142,4
226.683, 44.04917,      0.76904,     89.44965,50.00000,61.00000,3.454030e-09,0.92059,4
230.788, 46.49917,      0.87673,     89.38080,50.00000,61.00000,3.451800e-09,0.92000,4
235.322, 48.94917,      0.94023,     89.30656,50.00000,61.00000,3.463451e-09,0.91951,4
240.076, 51.39917,      0.96565,     89.25082,50.00000,61.00000,3.454551e-09,0.91917,4
244.947, 53.84917,      0.97184,     89.20328,50.00000,61.00000,3.452404e-09,0.91896,4
249.817, 56.29917,      0.96892,     89.07588,50.00000,61.00000,3.455124e-09,0.91887,4
254.708, 58.74917,      0.96131,     89.02037,50.00000,61.00000,3.459618e-09,0.91887,4
259.608, 61.19917,      0.95911,     88.90117,50.00000,61.00000,3.453943e-09,0.91886,4
264.507, 63.64917,      0.94822,     88.75808,50.00000,61.00000,3.465330e-09,0.91884,4
269.408, 66.09917,      0.94297,     88.52482,50.00000,61.00000,3.453718e-09,0.91880,4
274.308, 68.54917,      0.92692,     88.36862,50.00000,61.00000,3.445701e-09,0.91874,4
279.205, 70.99917,      0.92557,     88.12482,50.00000,61.00000,3.454109e-09,0.91865,4
284.093, 73.44917,      0.92157,     87.92084,50.00000,61.00000,3.444578e-09,0.91852,4
288.997, 75.89917,      0.91377,     87.60820,50.00000,61.00000,3.456419e-09,0.91837,4
293.893, 78.34917,      0.91401,     87.32201,50.00000,61.00000,3.460452e-09,0.91820,4
298.787, 80.79917,      0.91203,     87.00141,50.00000,61.00000,3.448513e-09,0.91800,4
303.682, 83.24917,      0.91370,     86.63583,50.00000,61.00000,3.452604e-09,0.91778,4
308.57, 85.69917,      0.90600,     86.15878,50.00000,61.00000,3.456419e-09,0.91754,4
313.481, 88.14917,      0.89434,     85.64754,50.00000,61.00000,3.449491e-09,0.91731,4
318.387, 90.59917,      0.88557,     85.01686,50.00000,61.00000,3.456164e-09,0.91705,4
323.293, 93.04917,      0.88489,     84.26721,50.00000,61.00000,3.452986e-09,0.91677,4
328.19, 95.49917,      0.86000,     83.30539,50.00000,61.00000,3.449868e-09,0.91649,4
333.091, 97.94917,      0.85893,     82.21897,50.00000,61.00000,3.463572e-09,0.91619,4
337.981,100.399,      0.86164,     80.80960,50.00000,61.00000,3.456097e-09,0.91590,4
342.887,102.849,      0.86130,     79.14824,50.00000,61.00000,3.446086e-09,0.91558,4
347.779,105.299,      0.84866,     77.09766,50.00000,61.00000,3.459294e-09,0.91523,4
352.667,107.749,      0.86154,     74.59368,50.00000,61.00000,3.445430e-09,0.91487,4
357.566,110.199,      0.87338,     71.47541,50.00000,61.00000,3.456197e-09,0.91448,4
362.464,112.649,      0.85492,     67.63630,50.00000,61.00000,3.448550e-09,0.91409,4
367.372,115.099,      0.87107,     62.87494,50.00000,61.00000,3.447556e-09,0.91365,4
372.272,117.549,      0.85458,     57.03021,50.00000,61.00000,3.456730e-09,0.91323,4
377.172,119.999,      0.85688,     49.86862,50.00000,61.00000,3.451631e-09,0.91276,4
382.063,122.449,      0.84004,     41.41944,50.00000,61.00000,3.449049e-09,0.91226,4
386.953,124.899,      0.76363,     31.86253,50.00000,62.00000,3.456039e-09,0.91173,4
391.859,127.349,      0.63773,     21.88712,50.00000,62.00000,3.448291e-09,0.91117,4
396.779,129.799,      0.42308,     12.48150,50.00000,62.00000,3.451839e-09,0.91060,4
401.669,132.249,      0.10498,      4.72904,50.00000,62.00000,3.445950e-09,0.91004,4
406.558,134.699,     -0.30451,     -0.49859,50.00000,62.00000,3.452132e-09,0.90941,4
411.454,137.149,     -0.59078,     -3.58244,50.00000,62.00000,3.456466e-09,0.90876,4
416.346,139.599,     -0.81461,     -5.31522,50.00000,62.00000,3.447667e-09,0.90809,4
421.252,142.049,     -0.98140,     -6.39906,50.00000,62.00000,3.454597e-09,0.90740,4
426.149,144.499,     -1.12096,     -6.98173,50.00000,62.00000,3.443376e-09,0.90668,4
431.065,146.949,     -1.23948,     -7.30515,50.00000,62.00000,3.456066e-09,0.90594,4
435.951,149.399,     -1.34673,     -7.40585,50.00000,62.00000,3.453413e-09,0.90518,4
440.843,151.849,     -1.43164,     -7.37143,50.00000,62.00000,3.446698e-09,0.90445,4
445.761,154.299,     -1.51956,     -7.31569,50.00000,62.00000,3.450196e-09,0.90365,4
[...]
494.772,178.799,     -2.44738,     -7.01358,50.00000,62.00000,3.445377e-09,0.89461,4
499.676,181.249,     -2.54475,     -6.98970,50.00000,62.00000,3.451296e-09,0.89360,4
504.577,183.699,     -2.63694,     -6.96066,50.00000,62.00000,3.448976e-09,0.89264,4
509.466,186.149,     -2.73213,     -6.92623,50.00000,62.00000,3.445848e-09,0.89160,4
514.367,188.599,     -2.82385,     -6.94215,50.00000,62.00000,3.454545e-09,0.89056,4
519.283,191.049,     -2.91836,     -6.91030,50.00000,62.00000,3.451168e-09,0.88949,4
524.193,193.499,     -3.01106,     -6.91827,50.00000,62.00000,3.452835e-09,0.88842,4
529.099,195.949,     -3.10464,     -6.87588,50.00000,62.00000,3.451387e-09,0.88733,4
533.993,198.399,     -3.19445,     -6.87330,50.00000,62.00000,3.452471e-09,0.88622,4
538.884,200.849,     -3.28169,     -6.86253,50.00000,62.00000,3.450593e-09,0.88519,4
543.8,203.299,     -3.36731,     -6.84684,50.00000,62.00000,3.446759e-09,0.88406,4
548.704,205.749,     -3.44269,     -6.79110,50.00000,62.00000,3.459175e-09,0.88293,4
553.619,208.199,     -3.52753,     -6.76979,50.00000,62.00000,3.443064e-09,0.88178,4
558.529,210.649,     -3.60895,     -6.78571,50.00000,62.00000,3.455380e-09,0.88063,4
563.426,213.099,     -3.68938,     -6.76183,50.00000,62.00000,3.448050e-09,0.87954,4
568.322,215.549,     -3.77043,     -6.76183,50.00000,62.00000,3.452783e-09,0.87837,4
573.232,217.999,     -3.85345,     -6.73817,50.00000,62.00000,3.446374e-09,0.87719,4
578.141,220.449,     -3.92737,     -6.69836,50.00000,62.00000,3.448235e-09,0.87600,4
583.051,222.899,     -4.00703,     -6.71429,50.00000,62.00000,3.440527e-09,0.87352,4
587.96,225.349,     -4.08201,     -6.63466,50.00000,62.00000,3.444178e-09,0.87092,4
592.857,227.799,     -4.16962,     -6.65059,50.00000,62.00000,3.450001e-09,0.86902,4
597.762,230.249,     -4.24432,     -6.65059,50.00000,62.00000,3.446580e-09,0.86745,4
601.02,231.343,     -3.23703,     -6.54988,50.00000,62.00000,3.446693e-09,0.86682,5
610.079,231.833,      2.49188,     -6.13677,50.00000,62.00000,3.446864e-09,0.86655,5
620.356,232.322,      3.50087,     -6.07307,50.00000,62.00000,3.449963e-09,0.86630,5
628.627,232.812,      1.96680,     -6.03864,50.00000,62.00000,3.438495e-09,0.86606,5
637.201,233.303,      1.97357,     -5.94333,50.00000,62.00000,3.452528e-09,0.86580,5
646.669,233.792,      2.38703,     -5.83981,50.00000,62.00000,3.443981e-09,0.86556,5
656.35,234.282,      2.30526,     -5.75246,50.00000,62.00000,3.450852e-09,0.86532,5
666.105,234.773,      2.07858,     -5.65714,50.00000,62.00000,3.448125e-09,0.86507,5
675.984,235.262,      1.85624,     -5.57752,50.00000,62.00000,3.448613e-09,0.86483,5
685.967,235.752,      1.57466,     -5.49016,50.00000,62.00000,3.448506e-09,0.86459,5
696.001,236.243,      1.22782,     -5.43185,50.00000,62.00000,3.447022e-09,0.86435,5
706.051,236.732,      0.85388,     -5.39204,50.00000,62.00000,3.435969e-09,0.86411,5
716.122,237.222,      0.45269,     -5.26487,50.00000,62.00000,3.447780e-09,0.86388,5
726.192,237.713, 3.346384e-02,     -5.23326,50.00000,62.00000,3.445045e-09,0.86363,5
736.248,238.202,     -0.40825,     -5.16956,50.00000,62.00000,3.454724e-09,0.86341,5
746.306,238.692,     -0.86828,     -5.09016,50.00000,62.00000,3.441974e-09,0.86317,5
756.344,239.183,     -1.32802,     -5.04239,50.00000,62.00000,3.449522e-09,0.86295,5
766.376,239.673,     -1.80097,     -4.97892,50.00000,62.00000,3.447217e-09,0.86280,5
776.382,240.162,     -2.27163,     -4.94707,50.00000,62.00000,3.439814e-09,0.86259,5
786.391,240.653,     -2.75064,     -4.85176,50.00000,62.00000,3.436579e-09,0.86238,5
793.635,241.007,     -3.09599,     -4.83583,50.00000,62.00000,            ,0.44744,5