Folder: data-visualizer/data/TGA/ps_scf3_flynn_ozawa_wall (part 4)

File: ExpDat_2025_11_18_SL_PS_Tosoh_F1_5K_min.csv
#EXPORTTYPE:                 ,DATA ALL
#FILE:                       ,2025_11_18_SL_PS_Tosoh_F1_5K_min.ngb-ss5
#FORMAT:                     ,NETZSCH5
#FTYPE:                      ,ASCII
#IDENTITY:                   ,PS_Tosoh_F1
#DECIMAL:                    ,POINT
#SEPARATOR:                  ,COMMA
#MTYPE:                      ,DSC
#INSTRUMENT:                 ,NETZSCH STA 449F5
#PROJECT:                    ,
#DATE/TIME:                  ,11/18/2025 11:26:36 AM (UTC-5)
#CORR. FILE:                 ,
#TEMPCAL:                    ,05-05-2025 14:38
#SENSITIVITY:                ,28-06-2023 13:53
#LABORATORY:                 ,Tran
#OPERATOR:                   ,Stan
#REMARK:                     ,
#SAMPLE:                     ,PS_Tosoh_F1
#SAMPLE MASS /mg:            ,4.48
#MATERIAL:                   ,
#REFERENCE:                  ,
#REFERENCE MASS /mg:         ,0
#TYPE OF CRUCIBLE:           ,Al2O3 85 ‘l, open
#SAMPLE CRUCIBLE MASS /mg:   ,0
#REFERENCE CRUCIBLE MASS /mg:,0
#DSC RANGE /‘V:              ,5000
#TG RANGE /mg:               ,35000
#TAU-R:                      ,---
#CORR. CODE:                 ,000
#EXO:                        ,-1
#RANGE:                      ,20›C....800›C/0.0....20.0K/min
#SEGMENT:                    ,S1-5/5
#SEG. 1:                     ,20›C/5.0(K/min)/100›C
#SEG. 2:                     ,100›C/00:05/100›C
#SEG. 3:                     ,100›C/10.0(K/min)/200›C
#SEG. 4:                     ,200›C/5.0(K/min)/600›C
#SEG. 5:                     ,600›C/20.0(K/min)/800›C

##Temp./›C,Time/min,DSC/(mW/mg),Mass/%,Gas Flow(purge2)/(ml/min),Gas Flow(protective)/(ml/min),TIC(scan:1)/A,Sensit./(uV/mW),Segment
 38.72400,  0.00000,      2.44404,100,50.00000,61.00000,            ,0.92492,1
 41.17000,  5.13333,      0.13161, 89.24978,50.00000,58.00000,3.402309e-09,0.92512,1
 59.54300, 10.26667,      1.70299, 92.63616,50.00000,58.00000,3.413724e-09,0.92515,1
 91.66000, 15.40000,      2.35015, 94.34330,50.00000,58.00000,3.431700e-09,0.92540,1
106.951, 19.38417,      0.86764, 92.45692,50.00000,58.00000,3.420433e-09,0.92583,2
108.198, 21.39417,      0.25281, 91.55536,50.00000,58.00000,3.426966e-09,0.92602,3
109.848, 22.16417,      0.82449, 92.66652,50.00000,58.00000,3.431849e-09,0.92609,3
113.457, 22.93417,      1.70577, 93.70179,50.00000,58.00000,3.438575e-09,0.92613,3
117.96, 23.70417,      2.28696, 94.34576,50.00000,58.00000,3.429517e-09,0.92617,3
123.313, 24.47417,      2.82200, 95.06808,50.00000,58.00000,3.432026e-09,0.92620,3
129.858, 25.24417,      3.46404, 95.89375,50.00000,58.00000,3.434200e-09,0.92620,3
137.375, 26.01417,      4.07306, 96.53772,50.00000,58.00000,3.436807e-09,0.92618,3
145.576, 26.78417,      4.56017, 97.01250,50.00000,58.00000,3.434636e-09,0.92614,3
154.232, 27.55417,      4.94722, 97.42656,50.00000,58.00000,3.436299e-09,0.92609,3
163.182, 28.32417,      5.24594, 97.76496,50.00000,58.00000,3.433594e-09,0.92601,3
172.258, 29.09417,      5.43344, 98.00737,50.00000,58.00000,3.434599e-09,0.92589,3
181.34, 29.86417,      5.51866, 98.15134,50.00000,58.00000,3.439423e-09,0.92578,3
190.341, 30.63417,      5.52426, 98.29777,50.00000,58.00000,3.431853e-09,0.92562,3
200.62, 31.56083,      5.24529, 98.23482,50.00000,58.00000,3.434923e-09,0.92538,4
208.834, 32.58750,      3.94282, 97.66652,50.00000,58.00000,3.434253e-09,0.92511,4
215.759, 33.61417,      3.35895, 97.57321,50.00000,58.00000,3.437409e-09,0.92479,4
221.832, 34.64083,      2.91429, 97.45201,50.00000,58.00000,3.434505e-09,0.92443,4
226.975, 35.66750,      2.50333, 97.30804,50.00000,58.00000,3.436444e-09,0.92404,4
231.731, 36.69417,      2.29991, 97.28013,50.00000,58.00000,3.435345e-09,0.92353,4
236.275, 37.72083,      2.17512, 97.28281,50.00000,59.00000,3.441341e-09,0.92305,4
240.715, 38.74750,      2.13108, 97.23728,50.00000,59.00000,3.437081e-09,0.92255,4
245.21, 39.77417,      2.13963, 97.26004,50.00000,58.00000,3.436701e-09,0.92205,4
249.762, 40.80083,      2.17593, 97.23728,50.00000,59.00000,3.441411e-09,0.92164,4
254.398, 41.82750,      2.20076, 97.22969,50.00000,59.00000,3.441241e-09,0.92119,4
259.139, 42.85417,      2.23652, 97.22969,50.00000,59.00000,3.441899e-09,0.92085,4
263.95, 43.88083,      2.26650, 97.19933,50.00000,59.00000,3.440451e-09,0.92055,4
268.839, 44.90750,      2.29230, 97.13616,50.00000,59.00000,3.434819e-09,0.92029,4
273.802, 45.93417,      2.31009, 97.01250,50.00000,59.00000,3.442920e-09,0.92002,4
278.794, 46.96083,      2.31749, 96.85848,50.00000,59.00000,3.441644e-09,0.91982,4
283.816, 47.98750,      2.32707, 96.67656,50.00000,59.00000,3.448559e-09,0.91962,4
288.866, 49.01417,      2.33160, 96.40134,50.00000,59.00000,3.431373e-09,0.91945,4
293.939, 50.04083,      2.33291, 96.08817,50.00000,59.00000,3.442810e-09,0.91929,4
299.026, 51.06750,      2.34300, 95.66138,50.00000,59.00000,3.436833e-09,0.91914,4
304.116, 52.09417,      2.36178, 95.28013,50.00000,59.00000,3.442926e-09,0.91903,4
309.225, 53.12083,      2.35795, 94.74219,50.00000,59.00000,3.433440e-09,0.91896,4
314.328, 54.14750,      2.35456, 94.15134,50.00000,59.00000,3.441827e-09,0.91890,4
319.433, 55.17417,      2.35229, 93.48973,50.00000,59.00000,3.436755e-09,0.91886,4
324.563, 56.20083,      2.35323, 92.73973,50.00000,59.00000,3.444823e-09,0.91885,4
329.686, 57.22750,      2.34792, 91.87098,50.00000,59.00000,3.442815e-09,0.91885,4
334.809, 58.25417,      2.35047, 90.85335,50.00000,59.00000,3.441827e-09,0.91885,4
339.928, 59.28083,      2.35647, 89.64866,50.00000,59.00000,3.444973e-09,0.91884,4
345.049, 60.30750,      2.35616, 88.26987,50.00000,59.00000,3.439748e-09,0.91884,4
350.18, 61.33417,      2.35841, 86.59554,50.00000,59.00000,3.439437e-09,0.91883,4
355.29, 62.36083,      2.36780, 84.65112,50.00000,59.00000,3.446147e-09,0.91882,4
360.417, 63.38750,      2.38319, 82.36830,50.00000,59.00000,3.444104e-09,0.91882,4
365.532, 64.41417,      2.39450, 79.68125,50.00000,59.00000,3.438695e-09,0.91881,4
370.65, 65.44083,      2.41587, 76.56763,50.00000,59.00000,3.435086e-09,0.91878,4
375.778, 66.46750,      2.45133, 72.80982,50.00000,59.00000,3.439510e-09,0.91877,4
380.899, 67.49417,      2.49415, 68.25424,50.00000,58.00000,3.446608e-09,0.91874,4
386.034, 68.52083,      2.53948, 62.76920,50.00000,58.00000,3.438584e-09,0.91871,4
391.142, 69.54750,      2.58721, 56.17813,50.00000,58.00000,3.450783e-09,0.91867,4
396.273, 70.57417,      2.62827, 48.54174,50.00000,58.00000,3.447961e-09,0.91863,4
401.405, 71.60083,      2.62570, 39.96830,50.00000,58.00000,3.451988e-09,0.91859,4
406.527, 72.62750,      2.55252, 30.81406,50.00000,58.00000,3.442414e-09,0.91854,4
411.666, 73.65417,      2.37388, 21.92746,50.00000,58.00000,3.443236e-09,0.91849,4
416.792, 74.68083,      2.08295, 14.25045,50.00000,59.00000,3.441882e-09,0.91842,4
421.932, 75.70750,      1.69220,  8.71250,50.00000,59.00000,3.444213e-09,0.91836,4
427.067, 76.73417,      1.29159,  5.31094,50.00000,58.00000,3.440614e-09,0.91829,4
432.208, 77.76083,      0.95852,  3.41429,50.00000,59.00000,3.445933e-09,0.91822,4
437.33, 78.78750,      0.73736,  2.36138,50.00000,58.00000,3.442443e-09,0.91813,4
442.471, 79.81417,      0.56856,  1.69464,50.00000,59.00000,3.447320e-09,0.91806,4
447.59, 80.84083,      0.42070,  1.32589,50.00000,58.00000,3.445302e-09,0.91798,4
452.71, 81.86750,      0.30034,  1.25781,50.00000,58.00000,3.452012e-09,0.91789,4
[...]
509.147, 93.16083,     -0.78585,  1.61384,50.00000,58.00000,3.436722e-09,0.91674,4
514.298, 94.18750,     -0.88650,  1.61384,50.00000,58.00000,3.434071e-09,0.91662,4
519.426, 95.21417,     -0.98664,  1.66696,50.00000,58.00000,3.456406e-09,0.91651,4
524.577, 96.24083,     -1.08716,  1.67701,50.00000,58.00000,3.447342e-09,0.91639,4
529.707, 97.26750,     -1.18360,  1.71987,50.00000,58.00000,3.445233e-09,0.91625,4
534.856, 98.29417,     -1.28442,  1.75781,50.00000,58.00000,3.445952e-09,0.91613,4
540.001, 99.32083,     -1.37165,  1.78817,50.00000,58.00000,3.443234e-09,0.91600,4
545.138,100.347,     -1.46667,  1.83348,50.00000,57.00000,3.445507e-09,0.91588,4
550.277,101.374,     -1.54930,  1.86384,50.00000,57.00000,3.444661e-09,0.91572,4
555.419,102.401,     -1.63853,  1.90670,50.00000,57.00000,3.446145e-09,0.91560,4
560.567,103.427,     -1.71329,  1.93705,50.00000,57.00000,3.456629e-09,0.91545,4
565.703,104.454,     -1.80035,  1.96741,50.00000,57.00000,3.441165e-09,0.91532,4
570.841,105.481,     -1.87606,  1.97991,50.00000,57.00000,3.445140e-09,0.91516,4
575.993,106.507,     -1.95407,  2.01027,50.00000,57.00000,3.443957e-09,0.91502,4
581.138,107.534,     -2.02663,  2.04063,50.00000,57.00000,3.449706e-09,0.91487,4
586.299,108.561,     -2.10643,  2.00268,50.00000,57.00000,3.438021e-09,0.91472,4
591.442,109.588,     -2.18694,  2.00268,50.00000,58.00000,3.453390e-09,0.91456,4
596.605,110.614,     -2.26351,  2.00536,50.00000,58.00000,3.443395e-09,0.91438,4
599.951,111.198,     -1.90224,  2.00536,50.00000,58.00000,3.442931e-09,0.91430,5
606.09,111.582,      1.59261,  2.25536,50.00000,58.00000,3.452002e-09,0.91422,5
614.509,111.968,      4.11340,  2.38661,50.00000,58.00000,3.445050e-09,0.91417,5
622.057,112.353,      3.66877,  2.43973,50.00000,58.00000,3.445469e-09,0.91411,5
628.69,112.737,      2.68010,  2.41696,50.00000,58.00000,3.448395e-09,0.91402,5
635.527,113.123,      2.54036,  2.46987,50.00000,58.00000,3.448603e-09,0.91397,5
642.88,113.507,      2.81113,  2.53817,50.00000,58.00000,3.442107e-09,0.91391,5
650.496,113.892,      2.87913,  2.56830,50.00000,58.00000,3.449141e-09,0.91382,5
658.139,114.278,      2.71850,  2.62902,50.00000,58.00000,3.439929e-09,0.91377,5
665.822,114.662,      2.51750,  2.68214,50.00000,58.00000,3.444834e-09,0.91371,5
673.574,115.047,      2.32144,  2.68973,50.00000,58.00000,3.442230e-09,0.91363,5
681.378,115.433,      2.11188,  2.71987,50.00000,59.00000,3.439363e-09,0.91357,5
689.22,115.817,      1.86779,  2.78058,50.00000,59.00000,3.447680e-09,0.91351,5
697.086,116.203,      1.59961,  2.81094,50.00000,59.00000,3.443117e-09,0.91342,5
704.971,116.588,      1.32344,  2.84107,50.00000,59.00000,3.449052e-09,0.91336,5
712.844,116.972,      1.03066,  2.90179,50.00000,59.00000,3.446900e-09,0.91330,5
720.727,117.358,      0.73033,  2.92455,50.00000,59.00000,3.440260e-09,0.91321,5
728.609,117.743,      0.40369,  2.96228,50.00000,59.00000,3.440156e-09,0.91314,5
736.487,118.127, 7.849008e-02,  2.96228,50.00000,59.00000,3.446343e-09,0.91308,5
744.358,118.513,     -0.24187,  3.00022,50.00000,59.00000,3.441833e-09,0.91299,5
752.241,118.897,     -0.57629,  3.06094,50.00000,58.00000,3.444993e-09,0.91292,5
760.097,119.282,     -0.90134,  3.11384,50.00000,58.00000,3.441483e-09,0.91286,5
767.947,119.668,     -1.24058,  3.15179,50.00000,58.00000,3.439589e-09,0.91276,5
775.798,120.052,     -1.57854,  3.18214,50.00000,58.00000,3.440484e-09,0.91270,5
783.639,120.438,     -1.90836,  3.18214,50.00000,58.00000,3.439987e-09,0.91263,5
791.476,120.823,     -2.24239,  3.24263,50.00000,58.00000,            ,0.44831,5
793.815,120.938,     -2.34074,  3.27299,50.00000,58.00000,            ,0.44737,5

File: ExpDat_2025_11_18_SL_PS_Tosoh_F1_10K_min.csv
#EXPORTTYPE:                 ,DATA ALL
#FILE:                       ,2025_11_18_SL_PS_Tosoh_F1_10K_min.ngb-ss5
#FORMAT:                     ,NETZSCH5
#FTYPE:                      ,ASCII
#IDENTITY:                   ,PS_Tosoh_F1
#DECIMAL:                    ,POINT
#SEPARATOR:                  ,COMMA
#MTYPE:                      ,DSC
#INSTRUMENT:                 ,NETZSCH STA 449F5
#PROJECT:                    ,
#DATE/TIME:                  ,11/18/2025 8:56:01 AM (UTC-5)
#CORR. FILE:                 ,
#TEMPCAL:                    ,05-05-2025 14:38
#SENSITIVITY:                ,28-06-2023 13:53
#LABORATORY:                 ,Tran
#OPERATOR:                   ,Stan
#REMARK:                     ,
#SAMPLE:                     ,PS_Tosoh_F1
#SAMPLE MASS /mg:            ,4.65
#MATERIAL:                   ,
#REFERENCE:                  ,
#REFERENCE MASS /mg:         ,0
#TYPE OF CRUCIBLE:           ,Al2O3 85 ‘l, open
#SAMPLE CRUCIBLE MASS /mg:   ,0
#REFERENCE CRUCIBLE MASS /mg:,0
#DSC RANGE /‘V:              ,5000
#TG RANGE /mg:               ,35000
#TAU-R:                      ,---
#CORR. CODE:                 ,000
#EXO:                        ,-1
#RANGE:                      ,20›C....800›C/0.0....20.0K/min
#SEGMENT:                    ,S1-5/5
#SEG. 1:                     ,20›C/5.0(K/min)/100›C
#SEG. 2:                     ,100›C/00:05/100›C
#SEG. 3:                     ,100›C/10.0(K/min)/200›C
#SEG. 4:                     ,200›C/10.0(K/min)/600›C
#SEG. 5:                     ,600›C/20.0(K/min)/800›C

##Temp./›C,Time/min,DSC/(mW/mg),Mass/%,Gas Flow(purge2)/(ml/min),Gas Flow(protective)/(ml/min),TIC(scan:1)/A,Sensit./(uV/mW),Segment
 31.42500, 0.00000,      0.19465,100,50.00000,60.00000,            ,0.92381,1
 35.61400, 4.00000,      0.21865, 99.08280,50.00000,60.00000,3.412058e-09,0.92409,1
 49.34800, 8.00000,      0.96609,100.971,50.00000,60.00000,3.416668e-09,0.92432,1
 72.61400,12.00000,      1.42889,102.333,50.00000,60.00000,3.417445e-09,0.92475,1
 96.77900,15.98417,      1.57328,102.72,50.00000,60.00000,3.420004e-09,0.92536,2
106.666,18.98417,      0.58454,100.842,50.00000,60.00000,3.419737e-09,0.92581,2
107.97,21.14417,      0.10713, 99.71785,50.00000,60.00000,3.419860e-09,0.92606,3
108.438,21.74417,      0.22912,100.141,50.00000,60.00000,3.416612e-09,0.92611,3
110.279,22.34417,      0.72120,101.041,50.00000,60.00000,3.418243e-09,0.92616,3
113.229,22.94417,      1.23206,101.778,50.00000,60.00000,3.420392e-09,0.92618,3
116.762,23.54417,      1.57964,102.292,50.00000,60.00000,3.419561e-09,0.92620,3
120.739,24.14417,      1.85486,102.786,50.00000,60.00000,3.418368e-09,0.92620,3
125.373,24.74417,      2.18005,103.333,50.00000,60.00000,3.427305e-09,0.92619,3
130.735,25.34417,      2.54110,103.883,50.00000,60.00000,3.414055e-09,0.92617,3
136.676,25.94417,      2.87767,104.311,50.00000,60.00000,3.416312e-09,0.92614,3
143.012,26.54417,      3.15272,104.666,50.00000,60.00000,3.412494e-09,0.92609,3
149.66,27.14417,      3.37212,105.002,50.00000,60.00000,3.420712e-09,0.92602,3
156.491,27.74417,      3.55032,105.214,50.00000,60.00000,3.424402e-09,0.92595,3
163.432,28.34417,      3.68707,105.418,50.00000,59.00000,3.415992e-09,0.92586,3
170.439,28.94417,      3.78387,105.535,50.00000,59.00000,3.417129e-09,0.92574,3
177.45,29.54417,      3.84139,105.652,50.00000,59.00000,3.424660e-09,0.92564,3
184.44,30.14417,      3.86866,105.761,50.00000,59.00000,3.415606e-09,0.92550,3
191.387,30.74417,      3.87409,105.827,50.00000,59.00000,3.413869e-09,0.92533,3
198.25,31.34417,      3.86037,105.861,50.00000,59.00000,3.415747e-09,0.92520,4
205.009,31.94417,      3.83347,105.92,50.00000,59.00000,3.418543e-09,0.92501,4
211.659,32.54417,      3.80507,105.971,50.00000,59.00000,3.424852e-09,0.92481,4
218.206,33.14417,      3.77298,106.007,50.00000,59.00000,3.417932e-09,0.92464,4
224.658,33.74417,      3.73998,106.066,50.00000,59.00000,3.418470e-09,0.92441,4
231.031,34.34417,      3.70626,106.117,50.00000,59.00000,3.422742e-09,0.92416,4
237.313,34.94417,      3.67247,106.182,50.00000,59.00000,3.414225e-09,0.92397,4
243.546,35.54417,      3.64499,106.189,50.00000,59.00000,3.422675e-09,0.92369,4
249.702,36.14417,      3.61847,106.182,50.00000,59.00000,3.412875e-09,0.92340,4
255.814,36.74417,      3.59698,106.241,50.00000,59.00000,3.423597e-09,0.92318,4
261.902,37.34417,      3.58125,106.299,50.00000,59.00000,3.425047e-09,0.92287,4
267.954,37.94417,      3.56649,106.27,50.00000,59.00000,3.414382e-09,0.92263,4
273.977,38.54417,      3.55252,106.255,50.00000,59.00000,3.421427e-09,0.92229,4
279.974,39.14417,      3.54136,106.185,50.00000,59.00000,3.415569e-09,0.92195,4
285.945,39.74417,      3.53285,106.068,50.00000,59.00000,3.424749e-09,0.92172,4
291.903,40.34417,      3.52727,105.98,50.00000,59.00000,3.418482e-09,0.92146,4
297.867,40.94417,      3.52682,105.834,50.00000,59.00000,3.418706e-09,0.92120,4
303.827,41.54417,      3.52860,105.557,50.00000,59.00000,3.420140e-09,0.92101,4
309.776,42.14417,      3.53283,105.258,50.00000,59.00000,3.415491e-09,0.92078,4
315.706,42.74417,      3.53972,104.825,50.00000,59.00000,3.422479e-09,0.92062,4
321.663,43.34417,      3.55270,104.338,50.00000,59.00000,3.426232e-09,0.92043,4
327.613,43.94417,      3.56852,103.74,50.00000,59.00000,3.422086e-09,0.92025,4
333.54,44.54417,      3.58714,102.993,50.00000,59.00000,3.421177e-09,0.92014,4
339.491,45.14417,      3.62064,102.092,50.00000,59.00000,3.422933e-09,0.91999,4
345.441,45.74417,      3.65621,100.942,50.00000,59.00000,3.418271e-09,0.91985,4
351.391,46.34417,      3.69677, 99.62043,50.00000,59.00000,3.417026e-09,0.91976,4
357.33,46.94417,      3.73857, 97.96366,50.00000,59.00000,3.424007e-09,0.91964,4
363.286,47.54417,      3.78737, 95.94430,50.00000,59.00000,3.423045e-09,0.91956,4
369.229,48.14417,      3.84591, 93.53312,50.00000,59.00000,3.423391e-09,0.91944,4
375.175,48.74417,      3.91402, 90.65247,50.00000,59.00000,3.420109e-09,0.91935,4
381.118,49.34417,      4.00110, 87.16602,50.00000,59.00000,3.428090e-09,0.91928,4
387.08,49.94417,      4.10794, 82.86946,50.00000,59.00000,3.414429e-09,0.91920,4
393.033,50.54417,      4.24163, 77.53376,50.00000,59.00000,3.408264e-09,0.91912,4
398.987,51.14417,      4.41160, 70.98172,50.00000,59.00000,3.414496e-09,0.91907,4
404.941,51.74417,      4.58481, 63.04301,50.00000,59.00000,3.419303e-09,0.91902,4
410.901,52.34417,      4.73752, 53.86086,50.00000,59.00000,3.419498e-09,0.91898,4
416.882,52.94417,      4.79418, 43.78581,50.00000,59.00000,3.413287e-09,0.91894,4
422.849,53.54417,      4.67156, 33.66215,50.00000,59.00000,3.414639e-09,0.91892,4
428.811,54.14417,      4.29347, 24.71613,50.00000,59.00000,3.411588e-09,0.91890,4
434.791,54.74417,      3.69632, 18.15441,50.00000,59.00000,3.410109e-09,0.91888,4
440.784,55.34417,      3.03598, 14.19591,50.00000,59.00000,3.415118e-09,0.91887,4
446.776,55.94417,      2.52993, 12.21785,50.00000,59.00000,3.416457e-09,0.91888,4
452.755,56.54417,      2.21837, 11.33462,50.00000,59.00000,3.412083e-09,0.91888,4
458.726,57.14417,      2.02975, 10.95032,50.00000,59.00000,3.412977e-09,0.91888,4
464.702,57.74417,      1.89736, 10.84086,50.00000,59.00000,3.412729e-09,0.91888,4
470.674,58.34417,      1.80798, 10.86280,50.00000,59.00000,3.417544e-09,0.91888,4
476.638,58.94417,      1.73378, 10.92344,50.00000,59.00000,3.405899e-09,0.91888,4
[...]
542.47,65.54417,      0.86501, 11.21785,50.00000,59.00000,3.406486e-09,0.91884,4
548.481,66.14417,      0.76814, 11.24710,50.00000,59.00000,3.413629e-09,0.91883,4
554.48,66.74417,      0.67931, 11.27634,50.00000,59.00000,3.413639e-09,0.91882,4
560.5,67.34417,      0.58477, 11.26903,50.00000,59.00000,3.415299e-09,0.91881,4
566.518,67.94417,      0.49144, 11.27140,50.00000,59.00000,3.417039e-09,0.91879,4
572.541,68.54417,      0.39762, 11.30065,50.00000,59.00000,3.421510e-09,0.91877,4
578.55,69.14417,      0.29886, 11.27140,50.00000,59.00000,3.418223e-09,0.91876,4
584.564,69.74417,      0.20530, 11.32258,50.00000,59.00000,3.409315e-09,0.91873,4
590.593,70.34417,      0.10893, 11.29333,50.00000,59.00000,3.410848e-09,0.91871,4
596.522,70.93583, 1.579455e-02, 11.33720,50.00000,59.00000,3.416544e-09,0.91869,4
599.96,71.23583,      0.27135, 11.34688,50.00000,59.00000,3.412580e-09,0.91867,5
605.17,71.53583,      1.54267, 11.46602,50.00000,59.00000,3.407457e-09,0.91866,5
611.519,71.83583,      2.60115, 11.59269,50.00000,59.00000,3.412303e-09,0.91865,5
617.79,72.13583,      2.71559, 11.62172,50.00000,59.00000,3.410309e-09,0.91863,5
623.51,72.43583,      2.28894, 11.62172,50.00000,59.00000,3.412710e-09,0.91862,5
628.957,72.73583,      1.92211, 11.62172,50.00000,59.00000,3.419936e-09,0.91861,5
634.477,73.03583,      1.82747, 11.62172,50.00000,59.00000,3.413464e-09,0.91858,5
640.237,73.33583,      1.88727, 11.68258,50.00000,59.00000,3.417466e-09,0.91857,5
646.153,73.63583,      1.93285, 11.71183,50.00000,59.00000,3.415924e-09,0.91856,5
652.135,73.93583,      1.90003, 11.71914,50.00000,59.00000,3.413157e-09,0.91855,5
658.138,74.23583,      1.81420, 11.72645,50.00000,59.00000,3.410259e-09,0.91853,5
664.143,74.53583,      1.71121, 11.75570,50.00000,59.00000,3.405329e-09,0.91851,5
670.168,74.83583,      1.61277, 11.78473,50.00000,59.00000,3.417770e-09,0.91849,5
676.221,75.13583,      1.51011, 11.77011,50.00000,59.00000,3.410914e-09,0.91847,5
682.294,75.43583,      1.38526, 11.82860,50.00000,59.00000,3.415230e-09,0.91846,5
688.388,75.73583,      1.25253, 11.82860,50.00000,59.00000,3.414931e-09,0.91844,5
694.5,76.03583,      1.09941, 11.88688,50.00000,59.00000,3.407797e-09,0.91842,5
700.597,76.33583,      0.93060, 11.88688,50.00000,59.00000,3.419178e-09,0.91840,5
706.702,76.63583,      0.74285, 11.85785,50.00000,59.00000,3.418313e-09,0.91837,5
712.811,76.93583,      0.54679, 11.91613,50.00000,59.00000,3.418401e-09,0.91837,5
718.911,77.23583,      0.34335, 11.91613,50.00000,59.00000,3.413324e-09,0.91834,5
725.037,77.53583,      0.13210, 11.94538,50.00000,59.00000,3.411894e-09,0.91832,5
731.147,77.83583,     -0.10300, 11.97462,50.00000,59.00000,3.410477e-09,0.91829,5
737.25,78.13583,     -0.34209, 12.00387,50.00000,59.00000,3.418899e-09,0.91827,5
743.363,78.43583,     -0.59467, 11.98194,50.00000,59.00000,3.418478e-09,0.91825,5
749.469,78.73583,     -0.84928, 12.04022,50.00000,59.00000,3.418986e-09,0.91824,5
755.58,79.03583,     -1.10452, 12.06946,50.00000,59.00000,3.412888e-09,0.91821,5
761.684,79.33583,     -1.35823, 12.06946,50.00000,59.00000,3.404070e-09,0.91818,5
767.763,79.63583,     -1.63004, 12.07677,50.00000,59.00000,3.409919e-09,0.91816,5
773.859,79.93583,     -1.90946, 12.09871,50.00000,59.00000,3.410356e-09,0.91813,5
779.95,80.23583,     -2.18211, 12.12065,50.00000,59.00000,3.413128e-09,0.91812,5
786.032,80.53583,     -2.45767, 12.12796,50.00000,59.00000,3.417941e-09,0.91809,5
792.125,80.83583,     -2.73733, 12.15699,50.00000,59.00000,            ,0.44804,5
794.153,80.93583,     -2.83660, 12.15699,50.00000,59.00000,            ,0.44723,5