Folder: data-visualizer/data/TGA/ps_scf3_flynn_ozawa_wall

File: ExpDat_2025_11_18_SL_PS_005D-L1_1K_min.csv
#EXPORTTYPE:                 ,DATA ALL
#FILE:                       ,2025_11_18_SL_PS_005D-L1_1K_min.ngb-ss5
#FORMAT:                     ,NETZSCH5
#FTYPE:                      ,ASCII
#IDENTITY:                   ,PS-005D-L1
#DECIMAL:                    ,POINT
#SEPARATOR:                  ,COMMA
#MTYPE:                      ,DSC
#INSTRUMENT:                 ,NETZSCH STA 449F5
#PROJECT:                    ,
#DATE/TIME:                  ,11/19/2025 9:30:22 PM (UTC-5)
#CORR. FILE:                 ,
#TEMPCAL:                    ,05-05-2025 14:38
#SENSITIVITY:                ,28-06-2023 13:53
#LABORATORY:                 ,Tran
#OPERATOR:                   ,Stan
#REMARK:                     ,
#SAMPLE:                     ,PS-005D-L1
#SAMPLE MASS /mg:            ,2.98
#MATERIAL:                   ,
#REFERENCE:                  ,
#REFERENCE MASS /mg:         ,0
#TYPE OF CRUCIBLE:           ,Al2O3 85 ‘l, open
#SAMPLE CRUCIBLE MASS /mg:   ,0
#REFERENCE CRUCIBLE MASS /mg:,0
#DSC RANGE /‘V:              ,5000
#TG RANGE /mg:               ,35000
#TAU-R:                      ,---
#CORR. CODE:                 ,000
#EXO:                        ,-1
#RANGE:                      ,20›C....800›C/0.0....20.0K/min
#SEGMENT:                    ,S1-5/5
#SEG. 1:                     ,20›C/5.0(K/min)/100›C
#SEG. 2:                     ,100›C/00:05/100›C
#SEG. 3:                     ,100›C/10.0(K/min)/200›C
#SEG. 4:                     ,200›C/1.0(K/min)/600›C
#SEG. 5:                     ,600›C/20.0(K/min)/800›C

##Temp./›C,Time/min,DSC/(mW/mg),Mass/%,Gas Flow(purge2)/(ml/min),Gas Flow(protective)/(ml/min),TIC(scan:1)/A,Sensit./(uV/mW),Segment
 33.93100,  0.00000,      0.11884,100,50.00000,64.00000,            ,0.92423,1
 45.64200,  7.20000,      1.65728,102.145,50.00000,64.00000,3.333580e-09,0.92446,1
 87.13900, 14.40000,      3.29848,105.926,50.00000,64.00000,3.344751e-09,0.92512,1
107.832, 20.18333,      0.63384,102.145,50.00000,64.00000,3.347481e-09,0.92594,2
108.75, 21.86333,      0.64461,102.35,50.00000,64.00000,3.349476e-09,0.92610,3
113.387, 22.94333,      2.63410,104.784,50.00000,64.00000,3.348910e-09,0.92617,3
120.054, 24.02333,      3.84689,106.199,50.00000,64.00000,3.342344e-09,0.92620,3
128.676, 25.10333,      5.12970,107.786,50.00000,64.00000,3.348774e-09,0.92619,3
139.323, 26.18333,      6.40690,109.092,50.00000,64.00000,3.345166e-09,0.92615,3
151.09, 27.26333,      7.29592,109.981,50.00000,64.00000,3.352127e-09,0.92605,3
163.465, 28.34333,      7.94401,110.618,50.00000,64.00000,3.344647e-09,0.92590,3
176.064, 29.42333,      8.36209,111.086,50.00000,64.00000,3.352115e-09,0.92573,3
188.629, 30.50333,      8.56692,111.336,50.00000,64.00000,3.349871e-09,0.92549,3
209.201, 33.53333,      3.30870,108.8,50.00000,64.00000,3.350479e-09,0.92462,4
213.409, 37.85333,      0.47932,106.644,50.00000,64.00000,3.343809e-09,0.92282,4
213.5, 42.17333,      0.55455,106.002,50.00000,64.00000,3.350044e-09,0.92092,4
215.803, 46.49333,      0.90736,105.706,50.00000,64.00000,3.352131e-09,0.91978,4
219.54, 50.81333,      1.08519,105.478,50.00000,64.00000,3.342499e-09,0.91913,4
223.761, 55.13333,      1.13646,105.273,50.00000,64.00000,3.355163e-09,0.91888,4
228.091, 59.45333,      1.15037,105.11,50.00000,64.00000,3.343408e-09,0.91887,4
232.406, 63.77333,      1.15720,104.973,50.00000,64.00000,3.345233e-09,0.91886,4
236.748, 68.09333,      1.15841,104.928,50.00000,64.00000,3.345008e-09,0.91878,4
241.066, 72.41333,      1.15540,104.894,50.00000,64.00000,3.341545e-09,0.91862,4
245.39, 76.73333,      1.15826,104.894,50.00000,64.00000,3.342497e-09,0.91837,4
249.713, 81.05333,      1.16058,104.958,50.00000,64.00000,3.345512e-09,0.91803,4
254.028, 85.37333,      1.16050,105.007,50.00000,63.00000,3.340982e-09,0.91763,4
258.335, 89.69333,      1.16140,105.053,50.00000,63.00000,3.343905e-09,0.91719,4
262.67, 94.01333,      1.15647,105.053,50.00000,63.00000,3.344388e-09,0.91671,4
266.976, 98.33333,      1.15809,105.174,50.00000,63.00000,3.348336e-09,0.91619,4
271.302,102.653,      1.15287,105.125,50.00000,63.00000,3.342559e-09,0.91560,4
275.646,106.973,      1.14925,105.102,50.00000,63.00000,3.342707e-09,0.91499,4
279.943,111.293,      1.14462,105.125,50.00000,63.00000,3.343404e-09,0.91432,4
284.262,115.613,      1.13874,105.095,50.00000,63.00000,3.344092e-09,0.91358,4
288.581,119.933,      1.12994,105.038,50.00000,63.00000,3.341565e-09,0.91276,4
292.895,124.253,      1.12593,104.867,50.00000,63.00000,3.344691e-09,0.91183,4
297.225,128.573,      1.11577,104.673,50.00000,63.00000,3.345946e-09,0.91087,4
301.547,132.893,      1.10650,104.457,50.00000,63.00000,3.346508e-09,0.90982,4
305.847,137.213,      1.08992,104.131,50.00000,63.00000,3.351704e-09,0.90870,4
310.178,141.533,      1.09365,103.743,50.00000,63.00000,3.352156e-09,0.90752,4
314.505,145.853,      1.08254,103.265,50.00000,63.00000,3.340434e-09,0.90626,4
318.828,150.173,      1.06866,102.627,50.00000,63.00000,3.344030e-09,0.90490,4
323.139,154.493,      1.06299,101.75,50.00000,63.00000,3.346148e-09,0.90351,4
327.46,158.813,      1.05965,100.668,50.00000,63.00000,3.344725e-09,0.90208,4
331.799,163.133,      1.04683, 99.34698,50.00000,63.00000,3.346830e-09,0.90058,4
336.117,167.453,      1.03725, 97.63087,50.00000,63.00000,3.339278e-09,0.89903,4
340.425,171.773,      1.04192, 95.45940,50.00000,63.00000,3.347009e-09,0.89742,4
344.742,176.093,      1.04012, 92.75235,50.00000,63.00000,3.350227e-09,0.89569,4
349.061,180.413,      1.03969, 89.33557,50.00000,63.00000,3.338305e-09,0.89399,4
353.37,184.733,      1.04515, 85.04966,50.00000,63.00000,3.347286e-09,0.89224,4
357.701,189.053,      1.06677, 79.65470,50.00000,63.00000,3.344147e-09,0.89044,4
362.013,193.373,      1.08228, 73.10973,50.00000,63.00000,3.343555e-09,0.88860,4
366.339,197.693,      1.10893, 65.38758,50.00000,63.00000,3.341796e-09,0.88673,4
370.651,202.013,      1.08396, 56.81544,50.00000,63.00000,3.338274e-09,0.88474,4
374.965,206.333,      1.01685, 47.82919,50.00000,63.00000,3.340496e-09,0.88279,4
379.298,210.653,      0.92345, 39.10872,50.00000,63.00000,3.338142e-09,0.88082,4
383.611,214.973,      0.81122, 31.26141,50.00000,63.00000,3.343271e-09,0.87882,4
387.938,219.293,      0.66313, 24.65201,50.00000,63.00000,3.337961e-09,0.87679,4
392.256,223.613,      0.46062, 19.30671,50.00000,63.00000,3.341041e-09,0.87172,4
396.573,227.933,      0.21747, 15.21409,50.00000,63.00000,3.334424e-09,0.86724,4
400.897,232.253,-3.775164e-02, 12.27550,50.00000,63.00000,3.338236e-09,0.86449,4
405.224,236.573,     -0.25910, 10.34698,50.00000,63.00000,3.338218e-09,0.86262,4
409.528,240.893,     -0.41674,  9.34094,50.00000,63.00000,3.339966e-09,0.86186,4
413.863,245.213,     -0.51295,  9.15503,50.00000,63.00000,3.347624e-09,0.86157,4
418.149,249.533,     -0.59394,  9.16644,50.00000,63.00000,3.339353e-09,0.86155,4
422.488,253.853,     -0.66257,  9.24597,50.00000,63.00000,3.342294e-09,0.86162,4
426.799,258.173,     -0.73348,  9.31443,50.00000,63.00000,3.341621e-09,0.86167,4
431.132,262.493,     -0.80754,  9.31812,50.00000,63.00000,3.340151e-09,0.86164,4
435.46,266.813,     -0.88591,  9.42081,50.00000,63.00000,3.341506e-09,0.86151,4
439.779,271.133,     -0.97217,  9.42819,50.00000,63.00000,3.339010e-09,0.86125,4
444.086,275.453,     -1.04133,  9.57617,50.00000,63.00000,3.344161e-09,0.86089,4
[...]
491.625,322.973,     -1.96199,  9.99396,50.00000,63.00000,3.347903e-09,0.85320,4
495.95,327.293,     -2.04228, 10.08490,50.00000,63.00000,3.347385e-09,0.85239,4
500.258,331.613,     -2.12584, 10.09631,50.00000,63.00000,3.346844e-09,0.85156,4
504.594,335.933,     -2.19585, 10.15336,50.00000,63.00000,3.346207e-09,0.85073,4
508.906,340.253,     -2.27584, 10.15336,50.00000,63.00000,3.345626e-09,0.84991,4
513.223,344.573,     -2.34414, 10.21779,50.00000,63.00000,3.346909e-09,0.84908,4
517.548,348.893,     -2.41350, 10.21779,50.00000,63.00000,3.348475e-09,0.84825,4
521.874,353.213,     -2.46438, 10.17248,50.00000,63.00000,3.351829e-09,0.84741,4
526.205,357.533,     -2.52353, 10.26342,50.00000,63.00000,3.346470e-09,0.84652,4
530.516,361.853,     -2.57872, 10.29765,50.00000,63.00000,3.351095e-09,0.84568,4
534.839,366.173,     -2.63350, 10.32047,50.00000,63.00000,3.337127e-09,0.84483,4
539.161,370.493,     -2.68203, 10.28624,50.00000,63.00000,3.346542e-09,0.84398,4
543.487,374.813,     -2.73138, 10.36611,50.00000,63.00000,3.354332e-09,0.84312,4
547.801,379.133,     -2.76625, 10.40000,50.00000,63.00000,3.345525e-09,0.84226,4
552.124,383.453,     -2.81304, 10.41141,50.00000,63.00000,3.352498e-09,0.84138,4
556.456,387.773,     -2.85203, 10.44564,50.00000,63.00000,3.350840e-09,0.84052,4
560.77,392.093,     -2.89709, 10.45705,50.00000,63.00000,3.349562e-09,0.83966,4
565.08,396.413,     -2.92732, 10.52550,50.00000,63.00000,3.358166e-09,0.83878,4
569.428,400.733,     -2.97159, 10.53691,50.00000,63.00000,3.345656e-09,0.83789,4
573.736,405.053,     -2.99981, 10.54832,50.00000,63.00000,3.350017e-09,0.83701,4
578.068,409.373,     -3.03471, 10.57081,50.00000,63.00000,3.344729e-09,0.83615,4
582.387,413.693,     -3.06552, 10.57081,50.00000,63.00000,3.348252e-09,0.83526,4
586.71,418.013,     -3.10115, 10.60503,50.00000,63.00000,3.352536e-09,0.83437,4
591.024,422.333,     -3.13736, 10.65067,50.00000,64.00000,3.350398e-09,0.83347,4
595.343,426.653,     -3.17186, 10.62785,50.00000,64.00000,3.347759e-09,0.83258,4
599.664,430.95,     -3.19461, 10.61644,50.00000,64.00000,3.351981e-09,0.83170,4
604.132,431.49,      1.96668, 11.10638,50.00000,64.00000,3.342734e-09,0.83160,5
615.842,432.03,      8.51587, 11.56174,50.00000,64.00000,3.349407e-09,0.83149,5
625.62,432.57,      6.53468, 11.53893,50.00000,64.00000,3.347733e-09,0.83135,5
634.652,433.11,      5.87993, 11.67584,50.00000,64.00000,3.353363e-09,0.83125,5
644.866,433.65,      6.72601, 11.85805,50.00000,63.00000,3.344908e-09,0.83115,5
655.488,434.19,      6.78068, 11.99463,50.00000,64.00000,3.345806e-09,0.83101,5
666.224,434.73,      6.54787, 12.17685,50.00000,63.00000,3.351011e-09,0.83091,5
677.135,435.27,      6.31081, 12.26812,50.00000,63.00000,3.349215e-09,0.83081,5
688.159,435.81,      5.97551, 12.41611,50.00000,63.00000,3.350636e-09,0.83071,5
699.21,436.35,      5.54183, 12.54128,50.00000,64.00000,3.352074e-09,0.83057,5
710.306,436.89,      5.07995, 12.67785,50.00000,64.00000,3.342869e-09,0.83047,5
721.415,437.43,      4.56297, 12.81477,50.00000,64.00000,3.347109e-09,0.83036,5
732.513,437.97,      4.02260, 12.95134,50.00000,64.00000,3.349542e-09,0.83026,5
743.612,438.51,      3.45587, 13.04228,50.00000,64.00000,3.340246e-09,0.83013,5
754.686,439.05,      2.87114, 13.11074,50.00000,64.00000,3.343699e-09,0.83002,5
765.76,439.59,      2.27108, 13.24732,50.00000,64.00000,3.349985e-09,0.82992,5
776.788,440.13,      1.66782, 13.31577,50.00000,64.00000,3.349645e-09,0.82977,5
787.822,440.67,      1.05647, 13.40705,50.00000,64.00000,3.343354e-09,0.82967,5
793.536,440.95,      0.73692, 13.45235,50.00000,64.00000,            ,0.44748,5

File: ExpDat_2025_11_18_SL_PS_005D-L1_2K_min.csv
#EXPORTTYPE:                 ,DATA ALL
#FILE:                       ,2025_11_18_SL_PS_005D-L1_2K_min.ngb-ss5
#FORMAT:                     ,NETZSCH5
#FTYPE:                      ,ASCII
#IDENTITY:                   ,PS-005d-L1
#DECIMAL:                    ,POINT
#SEPARATOR:                  ,COMMA
#MTYPE:                      ,DSC
#INSTRUMENT:                 ,NETZSCH STA 449F5
#PROJECT:                    ,PS
#DATE/TIME:                  ,11/22/2025 5:31:24 PM (UTC-5)
#CORR. FILE:                 ,
#TEMPCAL:                    ,05-05-2025 14:38
#SENSITIVITY:                ,28-06-2023 13:53
#LABORATORY:                 ,Tran
#OPERATOR:                   ,Stan
#REMARK:                     ,
#SAMPLE:                     ,PS-005d-L1
#SAMPLE MASS /mg:            ,1.85
#MATERIAL:                   ,
#REFERENCE:                  ,
#REFERENCE MASS /mg:         ,0
#TYPE OF CRUCIBLE:           ,Al2O3 85 ‘l, open
#SAMPLE CRUCIBLE MASS /mg:   ,0
#REFERENCE CRUCIBLE MASS /mg:,0
#DSC RANGE /‘V:              ,5000
#TG RANGE /mg:               ,35000
#TAU-R:                      ,---
#CORR. CODE:                 ,000
#EXO:                        ,-1
#RANGE:                      ,20›C....800›C/0.0....20.0K/min
#SEGMENT:                    ,S1-5/5
#SEG. 1:                     ,20›C/5.0(K/min)/100›C
#SEG. 2:                     ,100›C/00:05/100›C
#SEG. 3:                     ,100›C/10.0(K/min)/200›C
#SEG. 4:                     ,200›C/2.0(K/min)/600›C
#SEG. 5:                     ,600›C/20.0(K/min)/800›C

##Temp./›C,Time/min,DSC/(mW/mg),Mass/%,Gas Flow(purge2)/(ml/min),Gas Flow(protective)/(ml/min),TIC(scan:1)/A,Sensit./(uV/mW),Segment
 39.81000,  0.00000,      1.55855,100,50.00000,63.00000,            ,0.92506,1
 43.10000,  6.13333,      0.82576, 96.58162,50.00000,63.00000,3.271769e-09,0.92527,1
 71.01300, 12.26667,      5.16315,106.525,50.00000,64.00000,3.287074e-09,0.92528,1
103.231, 17.78417,      3.86765,106.017,50.00000,64.00000,3.295398e-09,0.92565,2
108.209, 21.22417,      0.61715,101.706,50.00000,64.00000,3.294507e-09,0.92598,3
109.899, 22.14417,      1.97149,104.287,50.00000,64.00000,3.292957e-09,0.92606,3
114.252, 23.06417,      4.46831,107.002,50.00000,64.00000,3.297742e-09,0.92613,3
119.782, 23.98417,      6.04858,108.91,50.00000,64.00000,3.292505e-09,0.92617,3
126.785, 24.90417,      7.82229,111.057,50.00000,64.00000,3.302631e-09,0.92620,3
135.381, 25.82417,      9.71777,112.977,50.00000,64.00000,3.295732e-09,0.92620,3
145.03, 26.74417,     11.21851,114.561,50.00000,64.00000,3.298703e-09,0.92617,3
155.399, 27.66417,     12.37009,115.704,50.00000,64.00000,3.295562e-09,0.92610,3
166.156, 28.58417,     13.19418,116.524,50.00000,64.00000,3.296229e-09,0.92602,3
177.024, 29.50417,     13.67600,117.19,50.00000,64.00000,3.293537e-09,0.92588,3
187.877, 30.42417,     13.88042,117.563,50.00000,65.00000,3.302220e-09,0.92574,3
203.51, 31.95917,     11.09960,115.985,50.00000,65.00000,3.302007e-09,0.92536,4
213.746, 34.25917,      4.85947,113.551,50.00000,65.00000,3.295700e-09,0.92464,4
218.003, 36.55917,      2.01332,111.962,50.00000,65.00000,3.306670e-09,0.92377,4
220.343, 38.85917,      1.33557,111.369,50.00000,65.00000,3.298942e-09,0.92264,4
222.773, 41.15917,      1.49493,111.075,50.00000,65.00000,3.298410e-09,0.92159,4
225.876, 43.45917,      1.83565,111.02,50.00000,65.00000,3.293970e-09,0.92078,4
229.614, 45.75917,      2.10636,110.928,50.00000,65.00000,3.302304e-09,0.92016,4
233.768, 48.05917,      2.27858,110.928,50.00000,66.00000,3.300158e-09,0.91966,4
238.176, 50.35917,      2.35985,110.891,50.00000,66.00000,3.295906e-09,0.91926,4
242.696, 52.65917,      2.37533,110.855,50.00000,66.00000,3.295503e-09,0.91900,4
247.28, 54.95917,      2.36554,110.69,50.00000,66.00000,3.293108e-09,0.91886,4
251.878, 57.25917,      2.33001,110.726,50.00000,66.00000,3.298271e-09,0.91883,4
256.482, 59.55917,      2.28929,110.653,50.00000,66.00000,3.296200e-09,0.91882,4
261.091, 61.85917,      2.23929,110.677,50.00000,66.00000,3.288382e-09,0.91881,4
265.687, 64.15917,      2.19593,110.665,50.00000,66.00000,3.298152e-09,0.91878,4
270.287, 66.45917,      2.14262,110.585,50.00000,66.00000,3.294652e-09,0.91874,4
274.883, 68.75917,      2.08734,110.659,50.00000,66.00000,3.304644e-09,0.91867,4
279.476, 71.05917,      2.02800,110.659,50.00000,66.00000,3.294581e-09,0.91857,4
284.086, 73.35917,      1.97895,110.702,50.00000,67.00000,3.293547e-09,0.91846,4
288.667, 75.65917,      1.90768,110.622,50.00000,66.00000,3.295318e-09,0.91832,4
293.27, 77.95917,      1.83888,110.512,50.00000,67.00000,3.297960e-09,0.91816,4
297.856, 80.25917,      1.78452,110.457,50.00000,67.00000,3.293909e-09,0.91798,4
302.459, 82.55917,      1.70233,110.274,50.00000,67.00000,3.290348e-09,0.91778,4
307.04, 84.85917,      1.63561,109.962,50.00000,67.00000,3.295508e-09,0.91758,4
311.635, 87.15917,      1.56450,109.76,50.00000,67.00000,3.293912e-09,0.91736,4
316.239, 89.45917,      1.48783,109.375,50.00000,67.00000,3.298716e-09,0.91712,4
320.849, 91.75917,      1.41248,108.91,50.00000,67.00000,3.292819e-09,0.91688,4
325.443, 94.05917,      1.32869,108.28,50.00000,67.00000,3.292186e-09,0.91662,4
330.037, 96.35917,      1.23417,107.516,50.00000,67.00000,3.300021e-09,0.91636,4
334.635, 98.65917,      1.15443,106.537,50.00000,67.00000,3.291949e-09,0.91607,4
339.238,100.959,      1.06827,105.204,50.00000,67.00000,3.291057e-09,0.91578,4
343.842,103.259,      0.98442,103.632,50.00000,67.00000,3.298525e-09,0.91547,4
348.425,105.559,      0.89120,101.608,50.00000,67.00000,3.294099e-09,0.91516,4
353.024,107.859,      0.81705, 99.04595,50.00000,67.00000,3.293359e-09,0.91482,4
357.622,110.159,      0.72736, 95.85351,50.00000,67.00000,3.296366e-09,0.91446,4
362.224,112.459,      0.63489, 91.98270,50.00000,67.00000,3.294824e-09,0.91409,4
366.807,114.759,      0.54470, 87.24324,50.00000,67.00000,3.291113e-09,0.91369,4
371.415,117.059,      0.45515, 81.61135,50.00000,67.00000,3.292155e-09,0.91328,4
376.007,119.359,      0.35930, 74.79838,50.00000,67.00000,3.289539e-09,0.91284,4
380.604,121.659,      0.24429, 67.13622,50.00000,67.00000,3.290212e-09,0.91241,4
385.209,123.959,      0.11501, 58.59297,50.00000,67.00000,3.289561e-09,0.91193,4
389.792,126.259,-5.462751e-02, 49.85405,50.00000,67.00000,3.294771e-09,0.91142,4
394.398,128.559,     -0.29492, 41.63514,50.00000,67.00000,3.296094e-09,0.91086,4
399.005,130.859,     -0.57921, 34.43730,50.00000,67.00000,3.294254e-09,0.91031,4
403.604,133.159,     -0.87599, 28.65838,50.00000,67.00000,3.292928e-09,0.90978,4
408.215,135.459,     -1.23364, 24.17568,50.00000,67.00000,3.292734e-09,0.90919,4
412.805,137.759,     -1.59505, 20.90432,50.00000,67.00000,3.298417e-09,0.90858,4
417.414,140.059,     -1.94387, 18.75784,50.00000,67.00000,3.295584e-09,0.90795,4
422.013,142.359,     -2.24359, 17.56486,50.00000,67.00000,3.295155e-09,0.90730,4
426.591,144.659,     -2.51540, 17.05135,50.00000,67.00000,3.293410e-09,0.90663,4
431.198,146.959,     -2.71047, 17.05135,50.00000,67.00000,3.300062e-09,0.90594,4
435.8,149.259,     -2.89722, 17.13081,50.00000,67.00000,3.292911e-09,0.90523,4
440.405,151.559,     -3.08994, 17.24703,50.00000,67.00000,3.293351e-09,0.90450,4
444.993,153.859,     -3.27725, 17.33892,50.00000,67.00000,3.295813e-09,0.90376,4
449.605,156.159,     -3.48846, 17.41243,50.00000,67.00000,3.294562e-09,0.90300,4
[...]
500.228,181.459,     -5.84168, 18.01135,50.00000,67.00000,3.295728e-09,0.89345,4
504.812,183.759,     -6.05738, 18.10919,50.00000,67.00000,3.290607e-09,0.89249,4
509.433,186.059,     -6.28859, 18.20108,50.00000,67.00000,3.294776e-09,0.89151,4
514.03,188.359,     -6.51291, 18.17027,50.00000,67.00000,3.290336e-09,0.89053,4
518.643,190.659,     -6.73258, 18.18865,50.00000,67.00000,3.290900e-09,0.88954,4
523.244,192.959,     -6.96754, 18.24378,50.00000,67.00000,3.295436e-09,0.88854,4
527.837,195.259,     -7.20113, 18.23784,50.00000,67.00000,3.294657e-09,0.88751,4
532.443,197.559,     -7.42710, 18.29297,50.00000,67.00000,3.293634e-09,0.88648,4
537.043,199.859,     -7.64581, 18.36595,50.00000,67.00000,3.290662e-09,0.88544,4
541.661,202.159,     -7.86949, 18.40919,50.00000,67.00000,3.292811e-09,0.88447,4
546.258,204.459,     -8.09491, 18.46432,50.00000,67.00000,3.289753e-09,0.88341,4
550.853,206.759,     -8.33022, 18.53730,50.00000,67.00000,3.297027e-09,0.88234,4
555.459,209.059,     -8.53633, 18.61081,50.00000,67.00000,3.294716e-09,0.88127,4
560.068,211.359,     -8.76463, 18.61081,50.00000,67.00000,3.291786e-09,0.88018,4
564.687,213.659,     -9.00373, 18.64757,50.00000,67.00000,3.294806e-09,0.87909,4
569.286,215.959,     -9.21791, 18.62919,50.00000,67.00000,3.291121e-09,0.87798,4
573.898,218.259,     -9.42568, 18.73946,50.00000,67.00000,3.291523e-09,0.87688,4
578.495,220.559,     -9.62135, 18.72108,50.00000,66.00000,3.296831e-09,0.87576,4
583.104,222.859,     -9.83659, 18.75135,50.00000,66.00000,3.288380e-09,0.87314,4
587.706,225.159,    -10.04953, 18.86162,50.00000,66.00000,3.292710e-09,0.87076,4
592.321,227.459,    -10.28235, 18.84324,50.00000,66.00000,3.294470e-09,0.86886,4
596.928,229.759,    -10.46559, 18.89838,50.00000,66.00000,3.288232e-09,0.86738,4
600.056,231.162,     -9.93144, 19.04486,50.00000,66.00000,3.285590e-09,0.86665,5
606.879,231.623,      2.62841, 19.89514,50.00000,66.00000,3.290705e-09,0.86638,5
616.981,232.083,     10.34018, 20.26216,50.00000,66.00000,3.289374e-09,0.86612,5
625.295,232.542,      7.35312, 20.24378,50.00000,66.00000,3.287750e-09,0.86587,5
632.974,233.002,      5.53479, 20.40270,50.00000,66.00000,3.293615e-09,0.86561,5
641.502,233.463,      6.62823, 20.56757,50.00000,66.00000,3.295162e-09,0.86545,5
650.524,233.923,      7.26081, 20.84919,50.00000,66.00000,3.295748e-09,0.86520,5
659.628,234.382,      6.92223, 20.99568,50.00000,66.00000,3.287981e-09,0.86495,5
668.812,234.843,      6.48190, 21.19784,50.00000,66.00000,3.285344e-09,0.86471,5
678.123,235.303,      6.02472, 21.38108,50.00000,66.00000,3.289341e-09,0.86454,5
687.513,235.762,      5.42535, 21.52811,50.00000,66.00000,3.286106e-09,0.86431,5
696.931,236.222,      4.64958, 21.67459,50.00000,66.00000,3.289980e-09,0.86406,5
706.376,236.683,      3.81502, 21.82757,50.00000,66.00000,3.287248e-09,0.86382,5
715.827,237.143,      2.90503, 21.97405,50.00000,67.00000,3.291557e-09,0.86358,5
725.267,237.602,      1.94061, 22.12108,50.00000,67.00000,3.290029e-09,0.86342,5
734.717,238.062,      0.92087, 22.26757,50.00000,66.00000,3.290558e-09,0.86318,5
744.16,238.523,     -0.14640, 22.41459,50.00000,67.00000,3.290868e-09,0.86296,5
753.576,238.982,     -1.24157, 22.56108,50.00000,66.00000,3.291486e-09,0.86275,5
763.001,239.442,     -2.30762, 22.65297,50.00000,67.00000,3.288396e-09,0.86261,5
772.416,239.903,     -3.39240, 22.80000,50.00000,66.00000,3.283250e-09,0.86239,5
781.795,240.363,     -4.50155, 22.87297,50.00000,67.00000,3.290798e-09,0.86217,5
791.192,240.822,     -5.54196, 23.02000,50.00000,67.00000,            ,0.44842,5
793.641,240.942,     -5.82604, 23.02000,50.00000,67.00000,            ,0.44744,5