Folder: data-visualizer/data/TGA/ps_scf3_flynn_ozawa_wall (part 2)

File: ExpDat_2025_11_18_SL_PS_005D-L1_5K_min.csv
#EXPORTTYPE:                 ,DATA ALL
#FILE:                       ,2025_11_18_SL_PS_005D-L1_5K_min.ngb-ss5
#FORMAT:                     ,NETZSCH5
#FTYPE:                      ,ASCII
#IDENTITY:                   ,PS-005d-L1
#DECIMAL:                    ,POINT
#SEPARATOR:                  ,COMMA
#MTYPE:                      ,DSC
#INSTRUMENT:                 ,NETZSCH STA 449F5
#PROJECT:                    ,PS
#DATE/TIME:                  ,11/22/2025 2:30:30 PM (UTC-5)
#CORR. FILE:                 ,
#TEMPCAL:                    ,05-05-2025 14:38
#SENSITIVITY:                ,28-06-2023 13:53
#LABORATORY:                 ,Tran
#OPERATOR:                   ,Stan
#REMARK:                     ,
#SAMPLE:                     ,PS-005d-L1
#SAMPLE MASS /mg:            ,2.25
#MATERIAL:                   ,
#REFERENCE:                  ,
#REFERENCE MASS /mg:         ,0
#TYPE OF CRUCIBLE:           ,Al2O3 85 ‘l, open
#SAMPLE CRUCIBLE MASS /mg:   ,0
#REFERENCE CRUCIBLE MASS /mg:,0
#DSC RANGE /‘V:              ,5000
#TG RANGE /mg:               ,35000
#TAU-R:                      ,---
#CORR. CODE:                 ,000
#EXO:                        ,-1
#RANGE:                      ,20›C....800›C/0.0....20.0K/min
#SEGMENT:                    ,S1-5/5
#SEG. 1:                     ,20›C/5.0(K/min)/100›C
#SEG. 2:                     ,100›C/00:05/100›C
#SEG. 3:                     ,100›C/10.0(K/min)/200›C
#SEG. 4:                     ,200›C/5.0(K/min)/600›C
#SEG. 5:                     ,600›C/20.0(K/min)/800›C

##Temp./›C,Time/min,DSC/(mW/mg),Mass/%,Gas Flow(purge2)/(ml/min),Gas Flow(protective)/(ml/min),TIC(scan:1)/A,Sensit./(uV/mW),Segment
 48.73100,  0.00000,      6.00981,    100,50.00000,63.00000,            ,0.92588,1
 60.08700,  5.40000,     -0.46239,     65.11422,50.00000,62.00000,3.283676e-09,0.92620,1
 56.34800, 10.80000,      0.57626,     65.98933,50.00000,62.00000,3.291992e-09,0.92618,1
 85.64600, 16.13417,      3.66763,     75.39200,50.00000,62.00000,3.301060e-09,0.92620,2
103.441, 20.18417,      1.54996,     72.01289,50.00000,62.00000,3.307209e-09,0.92618,2
105.794, 21.59417,      1.10336,     71.63600,50.00000,62.00000,3.309837e-09,0.92617,3
109.021, 22.40417,      2.24291,     74.03911,50.00000,62.00000,3.309228e-09,0.92616,3
113.853, 23.21417,      3.30923,     75.65822,50.00000,62.00000,3.304360e-09,0.92616,3
119.367, 24.02417,      3.98102,     76.91556,50.00000,62.00000,3.304452e-09,0.92616,3
125.95, 24.83417,      4.81896,     78.48444,50.00000,62.00000,3.313118e-09,0.92616,3
133.676, 25.64417,      5.73998,     79.99289,50.00000,62.00000,3.320271e-09,0.92617,3
142.219, 26.45417,      6.49571,     81.00356,50.00000,62.00000,3.307196e-09,0.92618,3
151.255, 27.26417,      7.08441,     81.88311,50.00000,62.00000,3.305271e-09,0.92618,3
160.652, 28.07417,      7.53331,     82.50178,50.00000,62.00000,3.309915e-09,0.92619,3
170.194, 28.88417,      7.85717,     83.17067,50.00000,62.00000,3.304178e-09,0.92620,3
179.763, 29.69417,      8.02972,     83.56267,50.00000,62.00000,3.308193e-09,0.92620,3
189.24, 30.50417,      8.09860,     83.89467,50.00000,62.00000,3.310944e-09,0.92619,3
199.841, 31.44083,      7.87439,     83.95467,50.00000,62.00000,3.306349e-09,0.92615,4
208.823, 32.52083,      5.85907,     82.78311,50.00000,62.00000,3.300109e-09,0.92609,4
216.109, 33.60083,      4.94047,     82.48178,50.00000,62.00000,3.306061e-09,0.92597,4
222.437, 34.68083,      4.23469,     82.19511,50.00000,62.00000,3.312520e-09,0.92582,4
227.741, 35.76083,      3.61877,     82.02400,50.00000,62.00000,3.304883e-09,0.92559,4
232.664, 36.84083,      3.33764,     81.99378,50.00000,62.00000,3.310426e-09,0.92533,4
237.352, 37.92083,      3.17212,     81.99378,50.00000,62.00000,3.306830e-09,0.92496,4
241.981, 39.00083,      3.12314,     81.96889,50.00000,62.00000,3.302551e-09,0.92458,4
246.681, 40.08083,      3.14723,     82.17511,50.00000,62.00000,3.299254e-09,0.92410,4
251.476, 41.16083,      3.18226,     82.29556,50.00000,62.00000,3.307904e-09,0.92373,4
256.396, 42.24083,      3.22892,     82.41644,50.00000,62.00000,3.308154e-09,0.92331,4
261.409, 43.32083,      3.27493,     82.47644,50.00000,62.00000,3.300647e-09,0.92290,4
266.497, 44.40083,      3.29827,     82.65778,50.00000,62.00000,3.309123e-09,0.92257,4
271.691, 45.48083,      3.31785,     82.68800,50.00000,62.00000,3.301525e-09,0.92221,4
276.938, 46.56083,      3.31539,     82.73289,50.00000,62.00000,3.305849e-09,0.92191,4
282.212, 47.64083,      3.30896,     82.74800,50.00000,62.00000,3.302793e-09,0.92157,4
287.527, 48.72083,      3.28536,     82.74800,50.00000,62.00000,3.303423e-09,0.92129,4
292.859, 49.80083,      3.25956,     82.68800,50.00000,62.00000,3.299980e-09,0.92099,4
298.185, 50.88083,      3.22667,     82.62222,50.00000,62.00000,3.296882e-09,0.92070,4
303.532, 51.96083,      3.18362,     82.48667,50.00000,62.00000,3.305751e-09,0.92049,4
308.881, 53.04083,      3.14448,     82.24533,50.00000,62.00000,3.310242e-09,0.92027,4
314.245, 54.12083,      3.10499,     81.85289,50.00000,62.00000,3.308973e-09,0.92009,4
319.616, 55.20083,      3.05890,     81.55156,50.00000,62.00000,3.304946e-09,0.91993,4
325.001, 56.28083,      3.01143,     81.06889,50.00000,62.00000,3.305468e-09,0.91980,4
330.374, 57.36083,      2.96601,     80.38978,50.00000,62.00000,3.302047e-09,0.91978,4
335.754, 58.44083,      2.92858,     79.58533,50.00000,62.00000,3.296599e-09,0.91975,4
341.145, 59.52083,      2.88346,     78.58978,50.00000,62.00000,3.305486e-09,0.91973,4
346.531, 60.60083,      2.84090,     77.35778,50.00000,62.00000,3.308291e-09,0.91971,4
351.906, 61.68083,      2.79402,     75.71378,50.00000,62.00000,3.301639e-09,0.91968,4
357.284, 62.76083,      2.75020,     73.64222,50.00000,62.00000,3.294495e-09,0.91966,4
362.684, 63.84083,      2.72398,     71.06756,50.00000,62.00000,3.307827e-09,0.91962,4
368.076, 64.92083,      2.69404,     67.72889,50.00000,62.00000,3.307439e-09,0.91959,4
373.467, 66.00083,      2.67827,     63.74178,50.00000,62.00000,3.300413e-09,0.91955,4
378.852, 67.08083,      2.65364,     58.77867,50.00000,62.00000,3.298562e-09,0.91951,4
384.236, 68.16083,      2.62091,     52.70489,50.00000,62.00000,3.299024e-09,0.91946,4
389.625, 69.24083,      2.56833,     45.52444,50.00000,62.00000,3.301382e-09,0.91941,4
395.017, 70.32083,      2.45364,     37.62533,50.00000,62.00000,3.311182e-09,0.91935,4
400.415, 71.40083,      2.27990,     29.06756,50.00000,62.00000,3.298975e-09,0.91929,4
405.806, 72.48083,      2.04578,     20.75067,50.00000,62.00000,3.302542e-09,0.91923,4
411.203, 73.56083,      1.69684,     13.30400,50.00000,62.00000,3.302803e-09,0.91915,4
416.608, 74.64083,      1.20105,      7.13956,50.00000,62.00000,3.299139e-09,0.91908,4
422.003, 75.72083,      0.66214,      2.36267,50.00000,62.00000,3.299186e-09,0.91898,4
427.391, 76.80083,      0.20572,     -0.72978,50.00000,62.00000,3.297232e-09,0.91891,4
432.788, 77.88083,     -0.16885,     -2.65022,50.00000,62.00000,3.299112e-09,0.91881,4
438.185, 78.96083,     -0.48291,     -3.58578,50.00000,62.00000,3.296459e-09,0.91872,4
443.57, 80.04083,     -0.72467,     -3.94756,50.00000,62.00000,3.299729e-09,0.91862,4
448.957, 81.12083,     -0.92651,     -3.94756,50.00000,62.00000,3.296011e-09,0.91853,4
454.354, 82.20083,     -1.12438,     -3.79689,50.00000,62.00000,3.298449e-09,0.91841,4
[...]
508.362, 93.00083,     -3.19976,     -3.25867,50.00000,62.00000,3.291719e-09,0.91720,4
513.761, 94.08083,     -3.43283,     -3.28889,50.00000,62.00000,3.301034e-09,0.91706,4
519.158, 95.16083,     -3.65388,     -3.25867,50.00000,62.00000,3.288552e-09,0.91694,4
524.566, 96.24083,     -3.87533,     -3.19867,50.00000,62.00000,3.299624e-09,0.91678,4
529.975, 97.32083,     -4.09130,     -3.18356,50.00000,62.00000,3.305491e-09,0.91665,4
535.39, 98.40083,     -4.32909,     -3.17333,50.00000,62.00000,3.300307e-09,0.91650,4
540.81, 99.48083,     -4.54730,     -3.14311,50.00000,62.00000,3.304963e-09,0.91637,4
546.197,100.561,     -4.78198,     -3.08267,50.00000,62.00000,3.300056e-09,0.91621,4
551.619,101.641,     -4.98728,     -3.08267,50.00000,62.00000,3.297051e-09,0.91605,4
557.022,102.721,     -5.20664,     -3.06756,50.00000,62.00000,3.296736e-09,0.91591,4
562.435,103.801,     -5.42173,     -3.03733,50.00000,62.00000,3.298084e-09,0.91573,4
567.847,104.881,     -5.63782,     -2.97733,50.00000,62.00000,3.295315e-09,0.91558,4
573.266,105.961,     -5.84389,     -2.97733,50.00000,62.00000,3.295119e-09,0.91541,4
578.678,107.041,     -6.05193,     -2.96222,50.00000,62.00000,3.297731e-09,0.91526,4
584.092,108.121,     -6.25887,     -2.99244,50.00000,62.00000,3.293448e-09,0.91507,4
589.505,109.201,     -6.47708,     -2.93200,50.00000,62.00000,3.295445e-09,0.91492,4
594.937,110.281,     -6.68492,     -2.97733,50.00000,62.00000,3.300076e-09,0.91472,4
599.079,111.093,     -6.72624,     -2.90178,50.00000,62.00000,3.294927e-09,0.91461,5
604.393,111.498,     -2.08757,     -2.44933,50.00000,62.00000,3.295149e-09,0.91452,5
613.129,111.903,      2.45633,     -2.07733,50.00000,62.00000,3.298191e-09,0.91447,5
621.281,112.308,      1.74721,     -2.01689,50.00000,62.00000,3.292434e-09,0.91438,5
628.293,112.713,-4.351509e-02,     -2.01689,50.00000,62.00000,3.290102e-09,0.91432,5
635.455,113.118,     -0.25191,     -1.91111,50.00000,62.00000,3.298736e-09,0.91424,5
643.199,113.522,      0.13981,     -1.71511,50.00000,62.00000,3.301044e-09,0.91418,5
651.209,113.927,      0.12432,     -1.63467,50.00000,62.00000,3.299894e-09,0.91409,5
659.251,114.332,     -0.20975,     -1.52889,50.00000,62.00000,3.292409e-09,0.91403,5
667.328,114.737,     -0.55252,     -1.46889,50.00000,62.00000,3.291002e-09,0.91393,5
675.514,115.142,     -0.87892,     -1.34800,50.00000,62.00000,3.289173e-09,0.91388,5
683.749,115.547,     -1.24883,     -1.22756,50.00000,62.00000,3.294153e-09,0.91378,5
692.007,115.953,     -1.68663,     -1.15200,50.00000,62.00000,3.293646e-09,0.91372,5
700.266,116.358,     -2.13310,     -0.98089,50.00000,62.00000,3.296813e-09,0.91363,5
708.554,116.763,     -2.59817,     -1.04133,50.00000,62.00000,3.301336e-09,0.91356,5
716.853,117.168,     -3.06652,     -0.91556,50.00000,62.00000,3.287451e-09,0.91350,5
725.16,117.573,     -3.57304,     -0.78978,50.00000,62.00000,3.290721e-09,0.91340,5
733.452,117.978,     -4.10760,     -0.74489,50.00000,62.00000,3.294110e-09,0.91334,5
741.724,118.382,     -4.64465,     -0.71467,50.00000,62.00000,3.289188e-09,0.91324,5
750.002,118.787,     -5.18641,     -0.58889,50.00000,62.00000,3.290309e-09,0.91318,5
758.28,119.192,     -5.73732,     -0.54356,50.00000,62.00000,3.293027e-09,0.91307,5
766.533,119.597,     -6.30551,     -0.52844,50.00000,62.00000,3.297158e-09,0.91301,5
774.781,120.002,     -6.87877,     -0.43778,50.00000,62.00000,3.299905e-09,0.91290,5
783.037,120.407,     -7.43327,     -0.33244,50.00000,62.00000,3.290777e-09,0.91284,5
791.28,120.812,     -7.98661,     -0.31733,50.00000,62.00000,            ,0.44838,5
793.831,120.938,     -8.16104,     -0.19644,50.00000,62.00000,            ,0.44736,5

File: ExpDat_2025_11_18_SL_PS_005D-L1_10K_min.csv
#EXPORTTYPE:                 ,DATA ALL
#FILE:                       ,2025_11_18_SL_PS_005D-L1_10K_min.ngb-ss5
#FORMAT:                     ,NETZSCH5
#FTYPE:                      ,ASCII
#IDENTITY:                   ,PS-005d-L1
#DECIMAL:                    ,POINT
#SEPARATOR:                  ,COMMA
#MTYPE:                      ,DSC
#INSTRUMENT:                 ,NETZSCH STA 449F5
#PROJECT:                    ,PS
#DATE/TIME:                  ,11/22/2025 12:23:44 PM (UTC-5)
#CORR. FILE:                 ,
#TEMPCAL:                    ,05-05-2025 14:38
#SENSITIVITY:                ,28-06-2023 13:53
#LABORATORY:                 ,Tran
#OPERATOR:                   ,Stan
#REMARK:                     ,
#SAMPLE:                     ,PS-005d-L1
#SAMPLE MASS /mg:            ,2.5
#MATERIAL:                   ,
#REFERENCE:                  ,
#REFERENCE MASS /mg:         ,0
#TYPE OF CRUCIBLE:           ,Al2O3 85 ‘l, open
#SAMPLE CRUCIBLE MASS /mg:   ,0
#REFERENCE CRUCIBLE MASS /mg:,0
#DSC RANGE /‘V:              ,5000
#TG RANGE /mg:               ,35000
#TAU-R:                      ,---
#CORR. CODE:                 ,000
#EXO:                        ,-1
#RANGE:                      ,20›C....800›C/0.0....20.0K/min
#SEGMENT:                    ,S1-5/5
#SEG. 1:                     ,20›C/5.0(K/min)/100›C
#SEG. 2:                     ,100›C/00:05/100›C
#SEG. 3:                     ,100›C/10.0(K/min)/200›C
#SEG. 4:                     ,200›C/10.0(K/min)/600›C
#SEG. 5:                     ,600›C/20.0(K/min)/800›C

##Temp./›C,Time/min,DSC/(mW/mg),Mass/%,Gas Flow(purge2)/(ml/min),Gas Flow(protective)/(ml/min),TIC(scan:1)/A,Sensit./(uV/mW),Segment
 27.56400, 0.00000,      2.44218,    100,50.00000,63.00000,            ,0.92308,1
 34.53600, 4.26667,      1.01260,     81.64520,50.00000,62.00000,3.306646e-09,0.92361,1
 52.41100, 8.53333,      2.86170,     84.74960,50.00000,62.00000,3.301329e-09,0.92405,1
 78.13400,12.80000,      3.77345,     86.36960,50.00000,62.00000,3.302568e-09,0.92470,1
101.324,16.78417,      3.56918,     85.81320,50.00000,62.00000,3.303741e-09,0.92544,2
107.87,19.98417,      0.86082,     81.85360,50.00000,62.00000,3.295394e-09,0.92595,2
108.096,21.38417,      0.22585,     80.74040,50.00000,62.00000,3.302629e-09,0.92609,3
109.124,22.02417,      0.95851,     82.24720,50.00000,62.00000,3.305452e-09,0.92614,3
111.718,22.66417,      2.34630,     83.97120,50.00000,62.00000,3.297647e-09,0.92617,3
115.218,23.30417,      3.48249,     85.14800,50.00000,62.00000,3.303827e-09,0.92619,3
119.252,23.94417,      4.28531,     86.05280,50.00000,62.00000,3.310080e-09,0.92620,3
123.975,24.58417,      5.10984,     87.11200,50.00000,62.00000,3.305164e-09,0.92619,3
129.499,25.22417,      6.05890,     88.18880,50.00000,62.00000,3.305311e-09,0.92617,3
135.718,25.86417,      6.97772,     89.08480,50.00000,62.00000,3.302385e-09,0.92614,3
142.443,26.50417,      7.73275,     89.77280,50.00000,62.00000,3.308374e-09,0.92608,3
149.513,27.14417,      8.32136,     90.35200,50.00000,62.00000,3.305262e-09,0.92601,3
156.798,27.78417,      8.78614,     90.84520,50.00000,62.00000,3.307347e-09,0.92592,3
164.237,28.42417,      9.14974,     91.22560,50.00000,62.00000,3.304396e-09,0.92581,3
171.71,29.06417,      9.40324,     91.55120,50.00000,62.00000,3.305610e-09,0.92569,3
179.211,29.70417,      9.56511,     91.71880,50.00000,62.00000,3.304337e-09,0.92555,3
186.67,30.34417,      9.64073,     91.88160,50.00000,62.00000,3.304708e-09,0.92540,3
194.076,30.98417,      9.64210,     92.04440,50.00000,62.00000,3.301083e-09,0.92527,4
201.363,31.62417,      9.58759,     92.08520,50.00000,62.00000,3.303394e-09,0.92509,4
208.511,32.26417,      9.50299,     92.09880,50.00000,62.00000,3.297115e-09,0.92489,4
215.559,32.90417,      9.40594,     92.16680,50.00000,62.00000,3.303089e-09,0.92468,4
222.499,33.54417,      9.29200,     92.26160,50.00000,62.00000,3.306645e-09,0.92445,4
229.324,34.18417,      9.17176,     92.26160,50.00000,62.00000,3.300301e-09,0.92421,4
236.046,34.82417,      9.05443,     92.28880,50.00000,62.00000,3.302858e-09,0.92395,4
242.697,35.46417,      8.94237,     92.39760,50.00000,62.00000,3.302053e-09,0.92374,4
249.274,36.10417,      8.83404,     92.39760,50.00000,62.00000,3.299943e-09,0.92346,4
255.811,36.74417,      8.72825,     92.47880,50.00000,62.00000,3.308761e-09,0.92317,4
262.298,37.38417,      8.61962,     92.47880,50.00000,62.00000,3.300066e-09,0.92286,4
268.745,38.02417,      8.53053,     92.56040,50.00000,62.00000,3.304979e-09,0.92253,4
275.154,38.66417,      8.43607,     92.60120,50.00000,62.00000,3.296689e-09,0.92220,4
281.552,39.30417,      8.34653,     92.60120,50.00000,62.00000,3.308402e-09,0.92186,4
287.913,39.94417,      8.26895,     92.60120,50.00000,62.00000,3.301436e-09,0.92157,4
294.273,40.58417,      8.19845,     92.64200,50.00000,62.00000,3.301317e-09,0.92130,4
300.625,41.22417,      8.13041,     92.50600,50.00000,62.00000,3.299780e-09,0.92111,4
306.973,41.86417,      8.07422,     92.37480,50.00000,62.00000,3.306968e-09,0.92087,4
313.327,42.50417,      8.02191,     92.15320,50.00000,62.00000,3.306585e-09,0.92064,4
319.649,43.14417,      7.97036,     91.77320,50.00000,62.00000,3.302888e-09,0.92044,4
326.001,43.78417,      7.93333,     91.27520,50.00000,62.00000,3.307754e-09,0.92025,4
332.346,44.42417,      7.89218,     90.51960,50.00000,62.00000,3.305446e-09,0.92009,4
338.687,45.06417,      7.84313,     89.72320,50.00000,62.00000,3.300121e-09,0.91994,4
345.028,45.70417,      7.78721,     88.53280,50.00000,62.00000,3.299703e-09,0.91981,4
351.355,46.34417,      7.71164,     87.05760,50.00000,62.00000,3.298697e-09,0.91968,4
357.684,46.98417,      7.69521,     85.18880,50.00000,62.00000,3.300472e-09,0.91960,4
364.037,47.62417,      7.67614,     82.87600,50.00000,62.00000,3.302172e-09,0.91948,4
370.392,48.26417,      7.68203,     79.89400,50.00000,62.00000,3.301545e-09,0.91938,4
376.734,48.90417,      7.73170,     75.88440,50.00000,62.00000,3.301004e-09,0.91929,4
383.076,49.54417,      7.84442,     70.83440,50.00000,62.00000,3.303301e-09,0.91920,4
389.422,50.18417,      8.06698,     64.44880,50.00000,62.00000,3.297287e-09,0.91912,4
395.793,50.82417,      8.25907,     56.56560,50.00000,62.00000,3.305603e-09,0.91905,4
402.147,51.46417,      8.34293,     47.25720,50.00000,62.00000,3.297127e-09,0.91901,4
408.495,52.10417,      8.28551,     36.99360,50.00000,62.00000,3.302109e-09,0.91896,4
414.861,52.74417,      8.00291,     26.64880,50.00000,62.00000,3.298882e-09,0.91892,4
421.225,53.38417,      7.39296,     17.45760,50.00000,62.00000,3.298426e-09,0.91889,4
427.605,54.02417,      6.47346,     10.14920,50.00000,62.00000,3.298713e-09,0.91886,4
433.99,54.66417,      5.67686,      5.19400,50.00000,62.00000,3.299664e-09,0.91885,4
440.359,55.30417,      5.03803,      2.10760,50.00000,62.00000,3.299698e-09,0.91884,4
446.733,55.94417,      4.51679,      0.49200,50.00000,62.00000,3.297180e-09,0.91885,4
453.109,56.58417,      4.09500,     -0.18240,50.00000,62.00000,3.301025e-09,0.91885,4
459.475,57.22417,      3.77098,     -0.34520,50.00000,62.00000,3.297611e-09,0.91885,4
465.841,57.86417,      3.51276,     -0.29080,50.00000,62.00000,3.299551e-09,0.91885,4
472.213,58.50417,      3.26921,     -0.22280,50.00000,62.00000,3.303033e-09,0.91885,4
478.583,59.14417,      3.01186,     -0.16880,50.00000,62.00000,3.301973e-09,0.91886,4
[...]
536.073,64.90417,      0.57286,      0.22520,50.00000,62.00000,3.295181e-09,0.91883,4
542.455,65.54417,      0.28018,      0.31560,50.00000,62.00000,3.307357e-09,0.91882,4
548.874,66.18417,-5.882379e-03,      0.32920,50.00000,62.00000,3.292433e-09,0.91881,4
555.289,66.82417,     -0.30446,      0.39720,50.00000,62.00000,3.298142e-09,0.91880,4
561.713,67.46417,     -0.60597,      0.41080,50.00000,62.00000,3.304396e-09,0.91879,4
568.132,68.10417,     -0.91689,      0.42400,50.00000,62.00000,3.298639e-09,0.91877,4
574.54,68.74417,     -1.22077,      0.42400,50.00000,62.00000,3.301263e-09,0.91875,4
580.963,69.38417,     -1.51513,      0.47840,50.00000,62.00000,3.303402e-09,0.91873,4
587.4,70.02417,     -1.83378,      0.47840,50.00000,62.00000,3.301137e-09,0.91871,4
593.801,70.66417,     -2.15672,      0.47840,50.00000,62.00000,3.301145e-09,0.91869,4
598.436,71.11583,     -2.24592,      0.53280,50.00000,62.00000,3.294957e-09,0.91868,5
603.275,71.43583,      0.58794,      0.74560,50.00000,62.00000,3.300230e-09,0.91866,5
609.818,71.75583,      4.75535,      0.92200,50.00000,62.00000,3.290584e-09,0.91865,5
616.598,72.07583,      6.34430,      1.03040,50.00000,62.00000,3.305191e-09,0.91863,5
622.796,72.39583,      5.51192,      1.05760,50.00000,62.00000,3.299456e-09,0.91862,5
628.606,72.71583,      4.28835,      1.03040,50.00000,62.00000,3.293017e-09,0.91861,5
634.518,73.03583,      3.84635,      1.03040,50.00000,62.00000,3.305987e-09,0.91859,5
640.653,73.35583,      3.98423,      1.14360,50.00000,62.00000,3.305219e-09,0.91857,5
646.992,73.67583,      4.13080,      1.19800,50.00000,62.00000,3.297949e-09,0.91856,5
653.375,73.99583,      4.01993,      1.22520,50.00000,62.00000,3.301830e-09,0.91854,5
659.756,74.31583,      3.73581,      1.27960,50.00000,62.00000,3.293775e-09,0.91852,5
666.16,74.63583,      3.40224,      1.33360,50.00000,62.00000,3.296622e-09,0.91850,5
672.606,74.95583,      3.06854,      1.38800,50.00000,62.00000,3.304518e-09,0.91848,5
679.069,75.27583,      2.71809,      1.44240,50.00000,62.00000,3.294111e-09,0.91847,5
685.568,75.59583,      2.33775,      1.44240,50.00000,62.00000,3.302222e-09,0.91846,5
692.06,75.91583,      1.90954,      1.44240,50.00000,62.00000,3.305691e-09,0.91844,5
698.569,76.23583,      1.44901,      1.49680,50.00000,62.00000,3.306235e-09,0.91842,5
705.088,76.55583,      0.97898,      1.49680,50.00000,62.00000,3.300433e-09,0.91840,5
711.611,76.87583,      0.46518,      1.60520,50.00000,62.00000,3.306638e-09,0.91838,5
718.133,77.19583,-6.566626e-02,      1.60520,50.00000,62.00000,3.297477e-09,0.91835,5
724.653,77.51583,     -0.63811,      1.65960,50.00000,62.00000,3.295637e-09,0.91833,5
731.174,77.83583,     -1.21471,      1.65960,50.00000,62.00000,3.307629e-09,0.91831,5
737.683,78.15583,     -1.81424,      1.71400,50.00000,62.00000,3.301539e-09,0.91828,5
744.207,78.47583,     -2.40964,      1.72760,50.00000,62.00000,3.303014e-09,0.91826,5
750.718,78.79583,     -3.01580,      1.78160,50.00000,62.00000,3.305100e-09,0.91824,5
757.235,79.11583,     -3.63420,      1.79520,50.00000,62.00000,3.302557e-09,0.91821,5
763.736,79.43583,     -4.24233,      1.84960,50.00000,62.00000,3.305613e-09,0.91819,5
770.23,79.75583,     -4.85536,      1.87680,50.00000,62.00000,3.304935e-09,0.91816,5
776.724,80.07583,     -5.46664,      1.90400,50.00000,62.00000,3.307306e-09,0.91814,5
783.217,80.39583,     -6.04773,      1.90400,50.00000,62.00000,3.306981e-09,0.91813,5
789.704,80.71583,     -6.60962,      2.01240,50.00000,62.00000,            ,0.44902,5
794.178,80.93583,     -7.00262,      1.95840,50.00000,62.00000,            ,0.44722,5